;Code;Gender;Age;Mobile;Trial_number;Angle;Step_Angle;Area1;Area2;Area3;n3SquareOrCircle;BiggerCircleOrSquare;PosBig;StimVal;StimVal3;Nalternativas;RT_type1;Response;Correct;Confidence;RT_Confidence;Nsujeto;binary_correct
1;303de2d8258ebd05fe8bfc0e899bcbad;f;20;1;1;589,164,114,763,711;-20,943,951,023,932;572,909,187,056,517;458,327,349,645,214;458,327,349,645,214;0;1;1;0,8;0;2;2111;2;FALSE;0,0910364786783854;9511;1;0
3;303de2d8258ebd05fe8bfc0e899bcbad;f;20;1;3;396,034,218,630,445;20,943,951,023,932;821,089,353,480,679;738,980,418,132,611;443,388,250,879,567;0;2;2;0,9;0;2;3156;2;TRUE;0,00700281180587469;2150;1;1
4;303de2d8258ebd05fe8bfc0e899bcbad;f;20;1;4;475,470,521,250,393;-20,943,951,023,932;8,636,472,363,424;803,191,929,798,432;24,095,757,893,953;0;2;2;0,93;0;2;2442;2;TRUE;0,0602241590911267;7356;1;1
5;303de2d8258ebd05fe8bfc0e899bcbad;f;20;1;5;477,347,891,910,149;20,943,951,023,932;565,532,397,404,964;525,945,129,586,616;210,378,051,834,646;0;1;1;0,93;0;2;2631;2;FALSE;0,0910364786783854;9079;1;0
6;303de2d8258ebd05fe8bfc0e899bcbad;f;20;1;6;59,493,186,956,562;20,943,951,023,932;335,499,677,280,621;31,872,469,341,659;956,174,080,249,771;0;1;1;0,95;0;2;2265;2;FALSE;0,0714286355411305;2023;1;0
7;303de2d8258ebd05fe8bfc0e899bcbad;f;20;1;7;362,580,073,064,728;20,943,951,023,932;509,948,876,345,097;484,451,432,527,842;242,225,716,263,921;1;1;1;0,95;0,5;3;3047;2;FALSE;0,0854341843548943;3383;1;0
8;303de2d8258ebd05fe8bfc0e899bcbad;f;20;1;8;57,296,265,725,127;-20,943,951,023,932;675,150,407,715,899;607,635,366,944,309;182,290,610,083,293;0;2;2;0,9;0;2;2080;2;TRUE;0,0770308924656288;1581;1;1
11;303de2d8258ebd05fe8bfc0e899bcbad;f;20;1;11;62,612,229,564,188;20,943,951,023,932;532,951,192,432,259;373,065,834,702,582;746,131,669,405,163;1;2;2;0,7;0,2;3;2019;2;TRUE;0,36554635739794;4836;1;1
12;303de2d8258ebd05fe8bfc0e899bcbad;f;20;1;12;156,322,895,526,757;-20,943,951,023,932;689,556,743,046,688;64,128,777,103,342;384,772,662,620,052;0;2;2;0,93;0;2;2625;2;TRUE;0,0210084728166169;1371;1;1
13;303de2d8258ebd05fe8bfc0e899bcbad;f;20;1;13;185,306,396,344,579;-20,943,951,023,932;671,076,679,310,909;637,522,845,345,364;637,522,845,345,364;1;2;2;0,95;0,1;3;1746;2;TRUE;0,194677913890165;2560;1;1
14;303de2d8258ebd05fe8bfc0e899bcbad;f;20;1;14;605,940,087,170,284;20,943,951,023,932;826,665,593,249,829;743,999,033,924,846;446,399,420,354,908;0;1;1;0,9;0;2;2692;1;TRUE;0,0854341843548943;4175;1;1
15;303de2d8258ebd05fe8bfc0e899bcbad;f;20;1;15;187,673,587,443,191;-20,943,951,023,932;778,122,429,594,156;622,497,943,675,325;373,498,766,205,195;0;2;2;0,8;0;2;1862;2;TRUE;0,141456604003906;3525;1;1
17;303de2d8258ebd05fe8bfc0e899bcbad;f;20;1;17;0,387693545970222;20,943,951,023,932;657,379,215,733,121;624,510,254,946,465;18,735,307,648,394;0;2;2;0,95;0;2;3611;2;TRUE;0,0490196826411229;3357;1;1
18;303de2d8258ebd05fe8bfc0e899bcbad;f;20;1;18;409,936,984,080,639;20,943,951,023,932;528,490,668,239,669;502,066,134,827,686;100,413,226,965,537;0;2;2;0,95;0;2;2480;2;TRUE;0,0770308924656288;688;1;1
19;303de2d8258ebd05fe8bfc0e899bcbad;f;20;1;19;427,082,917,398,064;20,943,951,023,932;486,425,306,587,996;462,104,041,258,596;277,262,424,755,157;2;1;1;0,95;0,6;3;5673;2;FALSE;0;1741;1;0
20;303de2d8258ebd05fe8bfc0e899bcbad;f;20;1;20;28,915,263,515,147;20,943,951,023,932;520,377,859,300,529;483,951,409,149,492;967,902,818,298,984;2;2;2;0,93;0,2;3;4486;1;FALSE;0;978;1;0
21;303de2d8258ebd05fe8bfc0e899bcbad;f;20;1;21;561,308,356,100,674;-20,943,951,023,932;64,443,353,884,786;59,932,319,112,851;119,864,638,225,702;1;1;1;0,93;0,2;3;2238;2;FALSE;0,0182072882558785;2138;1;0
22;303de2d8258ebd05fe8bfc0e899bcbad;f;20;1;22;0,224715572103323;20,943,951,023,932;693,084,609,756,141;658,430,379,268,334;658,430,379,268,334;0;1;1;0,95;0;2;3077;1;TRUE;0,029411839503868;2184;1;1
23;303de2d8258ebd05fe8bfc0e899bcbad;f;20;1;23;46,028,668,770,548;20,943,951,023,932;63,156,352,492,789;505,250,819,942,312;303,150,491,965,387;1;1;1;0,8;0,6;3;2534;1;TRUE;0,119047688502891;6049;1;1
24;303de2d8258ebd05fe8bfc0e899bcbad;f;20;1;24;258,467,645,578,325;-20,943,951,023,932;608,404,385,960,367;565,816,078,943,141;565,816,078,943,141;2;1;1;0,93;0,1;3;2479;2;FALSE;0,116246578740139;3034;1;0
25;303de2d8258ebd05fe8bfc0e899bcbad;f;20;1;25;510,816,951,348,773;20,943,951,023,932;497,830,833,377,444;398,264,666,701,955;398,264,666,701,955;0;2;2;0,8;0;2;1807;2;TRUE;0,256302553064683;3545;1;1
26;303de2d8258ebd05fe8bfc0e899bcbad;f;20;1;26;269,111,465,565,154;20,943,951,023,932;635,623,104,743,852;572,060,794,269,467;572,060,794,269,467;2;2;2;0,9;0,1;3;3696;2;TRUE;0,166666666666667;2173;1;1
27;303de2d8258ebd05fe8bfc0e899bcbad;f;20;1;27;0,149880866321738;-20,943,951,023,932;345,381,132,984,861;328,112,076,335,618;196,867,245,801,371;0;1;1;0,95;0;2;2447;1;TRUE;0,00700281180587469;2640;1;1
28;303de2d8258ebd05fe8bfc0e899bcbad;f;20;1;28;100,380,562,543,394;20,943,951,023,932;649,927,448,482,982;617,431,076,058,832;18,522,932,281,765;1;1;1;0,95;0,3;3;2950;2;FALSE;0,0238095451803768;1931;1;0
29;303de2d8258ebd05fe8bfc0e899bcbad;f;20;1;29;0,721242327590926;20,943,951,023,932;839,249,185,455,896;587,474,429,819,127;587,474,429,819,127;0;2;2;0,7;0;2;1866;2;TRUE;0,757703220143038;7157;1;1
30;303de2d8258ebd05fe8bfc0e899bcbad;f;20;1;30;0,661752815004332;20,943,951,023,932;528,810,239,204,662;370,167,167,443,263;370,167,167,443,263;2;2;2;0,7;0,1;3;1820;2;TRUE;0,337535035376455;5135;1;1
31;303de2d8258ebd05fe8bfc0e899bcbad;f;20;1;31;138,900,478,296,274;-20,943,951,023,932;637,792,544,317,401;510,234,035,453,921;25,511,701,772,696;0;2;2;0,8;0;2;2053;2;TRUE;0,155462265014648;2333;1;1
32;303de2d8258ebd05fe8bfc0e899bcbad;f;20;1;32;354,573,279,796,448;20,943,951,023,932;647,286,738,420,023;582,558,064,578,021;233,023,225,831,208;0;2;2;0,9;0;2;2260;2;TRUE;0,124649870629404;2150;1;1
33;303de2d8258ebd05fe8bfc0e899bcbad;f;20;1;33;123,010,879,341,164;-20,943,951,023,932;581,050,002,692,119;464,840,002,153,695;464,840,002,153,695;1;2;2;0,8;0,1;3;3322;2;TRUE;0,0630252314548866;2557;1;1
34;303de2d8258ebd05fe8bfc0e899bcbad;f;20;1;34;528,821,280,625,498;-20,943,951,023,932;563,136,739,185,599;394,195,717,429,919;19,709,785,871,496;0;1;1;0,7;0;2;2001;1;TRUE;0,519607992733226;1495;1;1
35;303de2d8258ebd05fe8bfc0e899bcbad;f;20;1;35;364,617,961,425,276;20,943,951,023,932;645,933,430,059,021;600,718,089,954,889;240,287,235,981,956;2;1;1;0,93;0,4;3;2481;1;TRUE;0,289916094611673;3590;1;1
36;303de2d8258ebd05fe8bfc0e899bcbad;f;20;1;36;242,928,186,160,713;20,943,951,023,932;567,648,666,789,169;527,913,260,113,927;263,956,630,056,964;0;1;1;0,93;0;2;3226;2;FALSE;0,119047688502891;2399;1;0
37;303de2d8258ebd05fe8bfc0e899bcbad;f;20;1;37;498,682,582,686,581;-20,943,951,023,932;540,684,500,665,672;37,847,915,046,597;113,543,745,139,791;2;2;2;0,7;0,3;3;1878;2;TRUE;0,225490196078431;5237;1;1
38;303de2d8258ebd05fe8bfc0e899bcbad;f;20;1;38;595,623,580,138,822;20,943,951,023,932;753,294,046,669,518;715,629,344,336,042;429,377,606,601,625;2;2;2;0,95;0,6;3;6145;2;TRUE;0,0210084728166169;1631;1;1
39;303de2d8258ebd05fe8bfc0e899bcbad;f;20;1;39;616,225,966,748,764;20,943,951,023,932;678,240,753,914,151;644,328,716,218,443;193,298,614,865,533;1;2;2;0,95;0,3;3;1986;1;FALSE;0,205882352941176;2441;1;0
40;303de2d8258ebd05fe8bfc0e899bcbad;f;20;1;40;512,781,259,970,437;20,943,951,023,932;737,418,034,746,315;51,619,262,432,242;206,477,049,728,968;0;2;2;0,7;0;2;2149;2;TRUE;0,124649870629404;2366;1;1
41;303de2d8258ebd05fe8bfc0e899bcbad;f;20;1;41;543,577,920,680,083;-20,943,951,023,932;915,144,155,973,695;851,084,065,055,536;255,325,219,516,661;0;1;1;0,93;0;2;2188;2;FALSE;0,219887976552926;2105;1;0
42;303de2d8258ebd05fe8bfc0e899bcbad;f;20;1;42;589,927,012,394,202;20,943,951,023,932;873,281,898,909,155;611,297,329,236,408;183,389,198,770,922;0;1;1;0,7;0;2;2030;1;TRUE;0,418767517688228;1975;1;1
43;303de2d8258ebd05fe8bfc0e899bcbad;f;20;1;43;165,147,575,449,969;20,943,951,023,932;493,246,006,592,071;468,583,706,262,467;937,167,412,524,935;1;2;2;0,95;0,2;3;1992;2;TRUE;0,211484647264668;2146;1;1
44;303de2d8258ebd05fe8bfc0e899bcbad;f;20;1;44;202,811,260,275,146;20,943,951,023,932;8,578,016,780,414;60,046,117,462,898;120,092,234,925,796;2;1;1;0,7;0,2;3;2406;1;TRUE;0,0378151313931334;2030;1;1
45;303de2d8258ebd05fe8bfc0e899bcbad;f;20;1;45;0,0965751626835335;20,943,951,023,932;753,684,514,647,837;602,947,611,718,269;301,473,805,859,135;1;2;2;0,8;0,5;3;3862;2;TRUE;0,0154061784931258;2778;1;1
46;303de2d8258ebd05fe8bfc0e899bcbad;f;20;1;46;180,098,985,540,343;-20,943,951,023,932;709,322,201,628,163;659,669,647,514,192;329,834,823,757,096;0;2;2;0,93;0;2;2120;2;TRUE;0,00140062967936198;2880;1;1
47;303de2d8258ebd05fe8bfc0e899bcbad;f;20;1;47;0,6130770000989;-20,943,951,023,932;680,289,974,465,345;544,231,979,572,276;163,269,593,871,683;0;2;2;0,8;0;2;2036;2;TRUE;0,0658263412176394;1901;1;1
48;303de2d8258ebd05fe8bfc0e899bcbad;f;20;1;48;350,486,789,058,177;-20,943,951,023,932;55,986,362,576,701;53,187,044,447,866;106,374,088,895,732;0;1;1;0,95;0;2;1993;1;TRUE;0,0630252314548866;1725;1;1
49;303de2d8258ebd05fe8bfc0e899bcbad;f;20;1;49;126,884,743,841,316;-20,943,951,023,932;823,168,227,316,244;658,534,581,852,995;131,706,916,370,599;0;2;2;0,8;0;2;1815;2;TRUE;0,21428575702742;2101;1;1
50;303de2d8258ebd05fe8bfc0e899bcbad;f;20;1;50;138,927,833,680,247;-20,943,951,023,932;794,980,612,715,689;71,548,255,144,412;143,096,510,288,824;1;2;2;0,9;0,2;3;5142;2;TRUE;1;3614;1;1
51;303de2d8258ebd05fe8bfc0e899bcbad;f;20;1;51;281,525,111,578,393;-20,943,951,023,932;696,548,610,317,812;55,723,888,825,425;167,171,666,476,275;1;1;1;0,8;0,3;3;8439;2;FALSE;0,0434173883176317;1407;1;0
52;303de2d8258ebd05fe8bfc0e899bcbad;f;20;1;52;543,850,031,438,604;-20,943,951,023,932;910,102,518,894,857;6,370,717,632,264;3,185,358,816,132;2;2;2;0,7;0,5;3;1886;2;TRUE;0,460784463321461;1053;1;1
53;303de2d8258ebd05fe8bfc0e899bcbad;f;20;1;53;388,767,216,625,108;20,943,951,023,932;565,157,875,145,138;395,610,512,601,597;791,221,025,203,193;0;1;1;0,7;0;2;1876;1;TRUE;0,729691898121553;1199;1;1
54;303de2d8258ebd05fe8bfc0e899bcbad;f;20;1;54;250,387,994,309,353;20,943,951,023,932;478,356,654,630,089;382,685,323,704,072;153,074,129,481,629;2;2;2;0,8;0,4;3;1865;2;TRUE;0,401960933909697;882;1;1
55;303de2d8258ebd05fe8bfc0e899bcbad;f;20;1;55;267,862,462,339,781;-20,943,951,023,932;805,704,461,565,299;563,993,123,095,709;112,798,624,619,142;0;2;2;0,7;0;2;1908;2;TRUE;0,715686424105775;1205;1;1
56;303de2d8258ebd05fe8bfc0e899bcbad;f;20;1;56;0,889792357595791;20,943,951,023,932;762,418,548,926,887;709,049,250,502,005;425,429,550,301,203;1;1;1;0,93;0,6;3;2248;1;TRUE;0,105042027492149;841;1;1
57;303de2d8258ebd05fe8bfc0e899bcbad;f;20;1;57;246,520,742,663,138;20,943,951,023,932;786,042,402,625,937;731,019,434,442,121;731,019,434,442,121;0;1;1;0,93;0;2;2282;2;FALSE;0,0966387356028837;1018;1;0
58;303de2d8258ebd05fe8bfc0e899bcbad;f;20;1;58;241,808,757,025,008;-20,943,951,023,932;838,492,528,111,437;779,798,051,143,637;155,959,610,228,727;0;2;2;0,93;0;2;1982;2;TRUE;0,0826330745921415;2910;1;1
59;303de2d8258ebd05fe8bfc0e899bcbad;f;20;1;59;291,791,626,943,648;20,943,951,023,932;962,388,232,548,463;91,426,882,092,104;45,713,441,046,052;0;1;1;0,95;0;2;1755;1;TRUE;0,121848760866651;3108;1;1
60;303de2d8258ebd05fe8bfc0e899bcbad;f;20;1;60;510,648,066,090,399;-20,943,951,023,932;854,910,719,330,682;683,928,575,464,545;410,357,145,278,727;2;2;2;0,8;0,6;3;1780;2;TRUE;0,547619090360754;3412;1;1
61;303de2d8258ebd05fe8bfc0e899bcbad;f;20;1;61;559,312,645,254,298;-20,943,951,023,932;491,597,466,570,997;393,277,973,256,797;117,983,391,977,039;2;2;2;0,8;0,3;3;2239;2;TRUE;0,0322129492666207;2142;1;1
62;303de2d8258ebd05fe8bfc0e899bcbad;f;20;1;62;35,649,701,395,023;-20,943,951,023,932;798,357,312,453,038;638,685,849,962,431;255,474,339,984,972;1;1;1;0,8;0,4;3;2877;2;FALSE;0,0686275257783778;2390;1;0
63;303de2d8258ebd05fe8bfc0e899bcbad;f;20;1;63;578,658,788,493,295;20,943,951,023,932;59,963,247,563,714;479,705,980,509,712;959,411,961,019,424;2;2;2;0,8;0,2;3;2048;2;TRUE;0,0938375510421454;2464;1;1
64;303de2d8258ebd05fe8bfc0e899bcbad;f;20;1;64;560,150,282,046,067;20,943,951,023,932;540,437,743,623,183;432,350,194,898,547;172,940,077,959,419;0;1;1;0,8;0;2;1880;1;TRUE;0,130252164952895;9756;1;1
65;303de2d8258ebd05fe8bfc0e899bcbad;f;20;1;65;331,964,055,907,613;20,943,951,023,932;490,080,544,656,389;44,107,249,019,075;220,536,245,095,375;0;2;2;0,9;0;2;3575;2;TRUE;0,0462184980803845;2398;1;1
66;303de2d8258ebd05fe8bfc0e899bcbad;f;20;1;66;342,242,798,252,151;-20,943,951,023,932;781,228,178,549,259;703,105,360,694,333;2,109,316,082,083;2;1;1;0,9;0,3;3;2935;1;TRUE;0,0406163159538718;1803;1;1
67;303de2d8258ebd05fe8bfc0e899bcbad;f;20;1;67;419,558,074,496,629;20,943,951,023,932;562,231,546,538,429;3,935,620,825,769;15,742,483,303,076;0;1;1;0,7;0;2;1891;1;TRUE;0,390756345262714;4282;1;1
68;303de2d8258ebd05fe8bfc0e899bcbad;f;20;1;68;190,061,754,474,032;-20,943,951,023,932;841,240,990,272,457;757,116,891,245,211;378,558,445,622,606;0;1;1;0,9;0;2;2778;2;FALSE;0,0518207924038756;2738;1;0
69;303de2d8258ebd05fe8bfc0e899bcbad;f;20;1;69;207,836,426,599,894;-20,943,951,023,932;693,768,061,822,863;485,637,643,276,004;291,382,585,965,603;0;2;2;0,7;0;2;1603;2;TRUE;0,228291455437155;1928;1;1
70;303de2d8258ebd05fe8bfc0e899bcbad;f;20;1;70;0,675962073466358;-20,943,951,023,932;415,658,631,433,751;290,961,042,003,626;11,638,441,680,145;2;1;1;0,7;0,4;3;1736;1;TRUE;0,0518207924038756;1984;1;1
71;303de2d8258ebd05fe8bfc0e899bcbad;f;20;1;71;562,186,294,484,115;-20,943,951,023,932;664,008,324,936,031;597,607,492,442,428;358,564,495,465,457;2;1;1;0,9;0,6;3;2559;1;TRUE;0,0322129492666207;1742;1;1
72;303de2d8258ebd05fe8bfc0e899bcbad;f;20;1;72;458,907,242,591,611;-20,943,951,023,932;807,261,557,612,984;726,535,401,851,685;290,614,160,740,674;2;2;2;0,9;0,4;3;1881;1;FALSE;0,0882353689156327;1223;1;0
73;303de2d8258ebd05fe8bfc0e899bcbad;f;20;1;73;548,333,060,000,397;-20,943,951,023,932;618,183,027,043,147;432,728,118,930,203;129,818,435,679,061;2;1;1;0,7;0,3;3;1138;1;TRUE;0,432773141299977;5263;1;1
74;303de2d8258ebd05fe8bfc0e899bcbad;f;20;1;74;113,938,368,002,746;-20,943,951,023,932;686,650,075,301,156;652,317,571,536,098;326,158,785,768,049;1;2;2;0,95;0,5;3;1809;2;TRUE;0,217086941588159;2540;1;1
75;303de2d8258ebd05fe8bfc0e899bcbad;f;20;1;75;365,713,133,859,916;20,943,951,023,932;858,784,949,931,364;815,845,702,434,796;489,507,421,460,878;0;2;2;0,95;0;2;2407;2;TRUE;0,0658263412176394;5883;1;1
76;303de2d8258ebd05fe8bfc0e899bcbad;f;20;1;76;0,366424506680386;20,943,951,023,932;295,163,567,759,254;274,502,118,016,106;274,502,118,016,106;0;2;2;0,93;0;2;2167;2;TRUE;0,0462184980803845;5144;1;1
77;303de2d8258ebd05fe8bfc0e899bcbad;f;20;1;77;307,092,815,774,331;20,943,951,023,932;486,167,974,681,086;45,213,621,645,341;45,213,621,645,341;2;2;2;0,93;0,1;3;1914;2;TRUE;0,105042027492149;4505;1;1
78;303de2d8258ebd05fe8bfc0e899bcbad;f;20;1;78;41,009,092,804,486;20,943,951,023,932;580,881,223,326,792;551,837,162,160,452;551,837,162,160,452;1;1;1;0,95;0,1;3;3127;2;FALSE;0,0462184980803845;3631;1;0
79;303de2d8258ebd05fe8bfc0e899bcbad;f;20;1;79;500,031,987,210,598;20,943,951,023,932;7,146,167,976,125;50,023,175,832,875;150,069,527,498,625;0;2;2;0,7;0;2;1759;2;TRUE;0,303921568627451;3190;1;1
80;303de2d8258ebd05fe8bfc0e899bcbad;f;20;1;80;274,292,588,870,579;20,943,951,023,932;983,780,050,347,592;934,591,047,830,212;373,836,419,132,085;0;2;2;0,95;0;2;2897;2;TRUE;0,0378151313931334;3200;1;1
81;303de2d8258ebd05fe8bfc0e899bcbad;f;20;1;81;262,448,527,113,271;-20,943,951,023,932;886,093,459,817,014;841,788,786,826,164;336,715,514,730,465;1;1;1;0,95;0,4;3;2712;1;TRUE;0,0462184980803845;2544;1;1
82;303de2d8258ebd05fe8bfc0e899bcbad;f;20;1;82;428,278,796,626,198;-20,943,951,023,932;367,094,998,172,641;293,675,998,538,113;146,837,999,269,056;1;1;1;0,8;0,5;3;4467;1;TRUE;0,0154061784931258;3131;1;1
83;303de2d8258ebd05fe8bfc0e899bcbad;f;20;1;83;0,660879971830929;20,943,951,023,932;989,058,879,772,057;69,234,121,584,044;69,234,121,584,044;0;1;1;0,7;0;2;1934;1;TRUE;0,222689086315679;2580;1;1
84;303de2d8258ebd05fe8bfc0e899bcbad;f;20;1;84;0,58107081266789;20,943,951,023,932;505,912,036,825,505;404,729,629,460,404;202,364,814,730,202;0;1;1;0,8;0;2;2039;1;TRUE;0,217086941588159;2348;1;1
85;303de2d8258ebd05fe8bfc0e899bcbad;f;20;1;85;526,561,151,224,582;-20,943,951,023,932;672,453,336,243,832;605,208,002,619,449;12,104,160,052,389;2;1;1;0,9;0,2;3;2642;1;TRUE;0,141456604003906;1633;1;1
86;303de2d8258ebd05fe8bfc0e899bcbad;f;20;1;86;0,209809131189374;-20,943,951,023,932;75,656,106,429,118;680,904,957,862,062;204,271,487,358,619;0;1;1;0,9;0;2;1805;1;TRUE;0,219887976552926;2464;1;1
87;303de2d8258ebd05fe8bfc0e899bcbad;f;20;1;87;374,670,822,417,223;-20,943,951,023,932;758,424,167,388,397;720,502,959,018,977;360,251,479,509,489;0;2;2;0,95;0;2;2195;2;TRUE;0,0714286355411305;1545;1;1
89;303de2d8258ebd05fe8bfc0e899bcbad;f;20;1;89;155,142,615,099,543;-20,943,951,023,932;43,020,105,325,578;400,086,979,527,876;240,052,187,716,725;0;1;1;0,93;0;2;2121;1;TRUE;0,0266106549431296;1888;1;1
90;303de2d8258ebd05fe8bfc0e899bcbad;f;20;1;90;0,0995597437251789;-20,943,951,023,932;580,421,219,446,373;406,294,853,612,461;162,517,941,444,985;2;2;2;0,7;0,4;3;1769;2;TRUE;0,446778839709712;1748;1;1
91;303de2d8258ebd05fe8bfc0e899bcbad;f;20;1;91;125,456,553,323,128;-20,943,951,023,932;592,772,051,637,668;533,494,846,473,901;10,669,896,929,478;0;2;2;0,9;0;2;1787;2;TRUE;0,147058898327397;1410;1;1
92;303de2d8258ebd05fe8bfc0e899bcbad;f;20;1;92;577,400,394,659,727;20,943,951,023,932;786,593,383,626,209;707,934,045,263,588;212,380,213,579,077;1;2;2;0,9;0,3;3;1960;2;TRUE;0,186274509803922;3068;1;1
93;303de2d8258ebd05fe8bfc0e899bcbad;f;20;1;93;522,369,018,874,417;20,943,951,023,932;947,651,002,471,046;758,120,801,976,837;151,624,160,395,367;2;1;1;0,8;0,2;3;1886;1;TRUE;0,0546218647676356;1431;1;1
94;303de2d8258ebd05fe8bfc0e899bcbad;f;20;1;94;535,227,360,305,073;-20,943,951,023,932;739,133,849,894,553;665,220,464,905,098;665,220,464,905,098;0;1;1;0,9;0;2;1879;2;FALSE;0,107843212052888;5735;1;0
95;303de2d8258ebd05fe8bfc0e899bcbad;f;20;1;95;286,141,016,630,284;20,943,951,023,932;589,460,995,345,587;47,156,879,627,647;94,313,759,255,294;0;1;1;0,8;0;2;2376;1;TRUE;0,32633067112343;2062;1;1
96;303de2d8258ebd05fe8bfc0e899bcbad;f;20;1;96;226,806,764,922,854;-20,943,951,023,932;642,183,073,151,793;597,230,258,031,168;17,916,907,740,935;1;2;2;0,93;0,3;3;7524;1;FALSE;0;1293;1;0
97;303de2d8258ebd05fe8bfc0e899bcbad;f;20;1;97;0,879627416597867;-20,943,951,023,932;841,880,354,317,803;782,948,729,515,557;391,474,364,757,778;2;1;1;0,93;0,5;3;6446;2;FALSE;1;2581;1;0
98;303de2d8258ebd05fe8bfc0e899bcbad;f;20;1;98;520,880,965,534,592;-20,943,951,023,932;772,290,500,389,587;61,783,240,031,167;247,132,960,124,668;0;2;2;0,8;0;2;6111;2;TRUE;0,553221309886259;2191;1;1
100;303de2d8258ebd05fe8bfc0e899bcbad;f;20;1;100;405,260,858,558,281;-20,943,951,023,932;335,714,145,449,838;234,999,901,814,886;234,999,901,814,886;2;1;1;0,7;0,1;3;2043;1;TRUE;0,385154200535195;2044;1;1
101;303de2d8258ebd05fe8bfc0e899bcbad;f;20;1;101;0,249555421314741;20,943,951,023,932;54,435,940,593,573;381,051,584,155,011;190,525,792,077,506;0;2;2;0,7;0;2;1743;2;TRUE;0,264705882352941;1933;1;1
102;303de2d8258ebd05fe8bfc0e899bcbad;f;20;1;102;345,970,514,743,529;-20,943,951,023,932;812,990,169,430,259;772,340,660,958,746;772,340,660,958,746;0;2;2;0,95;0;2;2218;2;TRUE;0,0658263412176394;1392;1;1
103;303de2d8258ebd05fe8bfc0e899bcbad;f;20;1;103;0,227858201055721;20,943,951,023,932;374,670,710,391,745;299,736,568,313,396;299,736,568,313,396;1;1;1;0,8;0,1;3;1509;1;TRUE;0,183473400041169;6351;1;1
104;303de2d8258ebd05fe8bfc0e899bcbad;f;20;1;104;0,0279513786362578;-20,943,951,023,932;578,659,290,550,652;538,153,140,212,107;215,261,256,084,843;0;2;2;0,93;0;2;2302;2;TRUE;0,0630252314548866;1246;1;1
105;303de2d8258ebd05fe8bfc0e899bcbad;f;20;1;105;60,558,405,144,046;-20,943,951,023,932;606,069,217,442,278;575,765,756,570,164;230,306,302,628,066;1;2;2;0,95;0,4;3;2382;2;TRUE;0,0630252314548866;1805;1;1
106;303de2d8258ebd05fe8bfc0e899bcbad;f;20;1;106;303,838,040,776,478;20,943,951,023,932;644,137,005,100,717;599,047,414,743,666;299,523,707,371,833;1;2;2;0,93;0,5;3;3345;1;FALSE;0;1154;1;0
107;303de2d8258ebd05fe8bfc0e899bcbad;f;20;1;107;0,0857455848165225;-20,943,951,023,932;798,835,218,673,909;559,184,653,071,736;335,510,791,843,042;1;1;1;0,7;0,6;3;1642;1;TRUE;0,684873992321538;3153;1;1
108;303de2d8258ebd05fe8bfc0e899bcbad;f;20;1;108;395,447,189,524,216;-20,943,951,023,932;637,554,802,832,403;592,925,966,634,135;17,787,778,999,024;2;1;1;0,93;0,3;3;2062;2;FALSE;0,284313725490196;2512;1;0
109;303de2d8258ebd05fe8bfc0e899bcbad;f;20;1;109;522,465,482,379,257;-20,943,951,023,932;879,303,572,612,466;79,137,321,535,122;39,568,660,767,561;1;2;2;0,9;0,5;3;4029;2;TRUE;0,0658263412176394;2560;1;1
110;303de2d8258ebd05fe8bfc0e899bcbad;f;20;1;110;496,880,469,033,786;-20,943,951,023,932;666,736,876,672,432;466,715,813,670,702;280,029,488,202,421;0;1;1;0,7;0;2;1962;1;TRUE;0,233893600164675;1308;1;1
111;303de2d8258ebd05fe8bfc0e899bcbad;f;20;1;111;560,996,133,594,284;-20,943,951,023,932;108,426,559,392,854;975,839,034,535,686;975,839,034,535,686;2;1;1;0,9;0,1;3;1911;1;TRUE;0,0994398453656365;2131;1;1
112;303de2d8258ebd05fe8bfc0e899bcbad;f;20;1;112;406,531,749,167,028;-20,943,951,023,932;592,403,044,074,076;533,162,739,666,668;533,162,739,666,668;0;2;2;0,9;0;2;1948;2;TRUE;0,119047688502891;4373;1;1
114;303de2d8258ebd05fe8bfc0e899bcbad;f;20;1;114;50,677,791,394,369;-20,943,951,023,932;643,003,205,214,073;514,402,564,171,259;154,320,769,251,378;0;1;1;0,8;0;2;1921;2;FALSE;0,0742297079048905;1795;1;0
115;303de2d8258ebd05fe8bfc0e899bcbad;f;20;1;115;0,526663747430153;20,943,951,023,932;718,406,359,436,472;646,565,723,492,825;387,939,434,095,695;1;2;2;0,9;0,6;3;1875;1;FALSE;0,166666666666667;3169;1;0
116;303de2d8258ebd05fe8bfc0e899bcbad;f;20;1;116;227,828,868,684,068;20,943,951,023,932;889,530,383,852,539;845,053,864,659,912;169,010,772,931,982;1;1;1;0,95;0,2;3;5019;2;FALSE;0,0490196826411229;1867;1;0
117;303de2d8258ebd05fe8bfc0e899bcbad;f;20;1;117;3,471,875,138,691;20,943,951,023,932;594,464,362,160,841;552,851,856,809,583;221,140,742,723,833;1;2;2;0,93;0,4;3;2439;2;TRUE;0,0574229745303883;1750;1;1
118;303de2d8258ebd05fe8bfc0e899bcbad;f;20;1;118;604,313,159,534,068;20,943,951,023,932;895,226,331,383,655;850,465,014,814,473;340,186,005,925,789;0;1;1;0,95;0;2;1795;1;TRUE;0,1134453941794;2970;1;1
119;303de2d8258ebd05fe8bfc0e899bcbad;f;20;1;119;20,691,941,981,695;-20,943,951,023,932;838,937,877,210,662;671,150,301,768,529;402,690,181,061,118;0;1;1;0,8;0;2;2462;1;TRUE;0,0910364786783854;2257;1;1
120;303de2d8258ebd05fe8bfc0e899bcbad;f;20;1;120;562,418,967,896,036;-20,943,951,023,932;579,408,373,997,177;405,585,861,798,024;243,351,517,078,814;1;2;2;0,7;0,6;3;2190;2;TRUE;0,0826330745921415;8814;1;1
121;5cecae631ba0238051da69264b836a4f;f;22;0;1;298,323,397,252,916;-20,943,951,023,932;749,104,985,486,428;711,649,736,212,106;355,824,868,106,053;1;1;1;0,95;0,5;3;3802;1;TRUE;0,36646884272997;1614;2;1
122;5cecae631ba0238051da69264b836a4f;f;22;0;2;347,030,922,905,475;20,943,951,023,932;870,363,040,399,354;696,290,432,319,484;348,145,216,159,742;0;1;1;0,8;0;2;2264;1;TRUE;1;1347;2;1
123;5cecae631ba0238051da69264b836a4f;f;22;0;3;526,278,570,878,078;20,943,951,023,932;653,057,399,112,183;522,445,919,289,746;522,445,919,289,746;1;1;1;0,8;0,1;3;2400;1;TRUE;1;1285;2;1
124;5cecae631ba0238051da69264b836a4f;f;22;0;4;204,620,200,601,945;20,943,951,023,932;764,240,035,059,852;72,602,803,330,686;72,602,803,330,686;0;1;1;0,95;0;2;2236;2;FALSE;1;1349;2;0
125;5cecae631ba0238051da69264b836a4f;f;22;0;5;125,158,875,342,554;20,943,951,023,932;677,912,185,772,569;630,458,332,768,489;126,091,666,553,698;0;1;1;0,93;0;2;2737;2;FALSE;0,820474777448071;1601;2;0
126;5cecae631ba0238051da69264b836a4f;f;22;0;6;370,281,500,134,682;20,943,951,023,932;774,484,863,918,574;697,036,377,526,717;278,814,551,010,687;1;1;1;0,9;0,4;3;3203;1;TRUE;0,729970326409496;1818;2;1
127;5cecae631ba0238051da69264b836a4f;f;22;0;7;138,242,968,275,243;20,943,951,023,932;810,102,464,808,459;648,081,971,846,767;19,442,459,155,403;0;2;2;0,8;0;2;1616;2;TRUE;1;1820;2;1
128;5cecae631ba0238051da69264b836a4f;f;22;0;8;603,220,359,787,364;-20,943,951,023,932;517,086,193,118,916;49,123,188,346,297;294,739,130,077,782;1;2;2;0,95;0,6;3;2674;2;TRUE;0,971810089020771;1314;2;1
129;5cecae631ba0238051da69264b836a4f;f;22;0;9;361,713,167,897,596;-20,943,951,023,932;663,373,066,722,441;597,035,760,050,197;597,035,760,050,197;0;2;2;0,9;0;2;2406;2;TRUE;0,718100890207715;1037;2;1
130;5cecae631ba0238051da69264b836a4f;f;22;0;10;446,602,576,573,976;-20,943,951,023,932;951,243,496,296,129;66,587,044,740,729;399,522,268,444,374;0;1;1;0,7;0;2;2464;1;TRUE;1;1093;2;1
131;5cecae631ba0238051da69264b836a4f;f;22;0;11;411,794,389,329,281;-20,943,951,023,932;732,154,687,222,311;512,508,281,055,618;205,003,312,422,247;2;2;2;0,7;0,4;3;2148;2;TRUE;1;1144;2;1
132;5cecae631ba0238051da69264b836a4f;f;22;0;12;26,692,865,535,607;-20,943,951,023,932;763,414,119,938,188;709,975,131,542,515;283,990,052,617,006;2;1;1;0,93;0,4;3;3659;2;FALSE;0,5;2097;2;0
133;5cecae631ba0238051da69264b836a4f;f;22;0;13;491,344,787,020,808;-20,943,951,023,932;666,096,023,088,472;599,486,420,779,625;599,486,420,779,625;1;1;1;0,9;0,1;3;2532;1;TRUE;0,919881305637982;1069;2;1
134;5cecae631ba0238051da69264b836a4f;f;22;0;14;195,444,208,394,003;-20,943,951,023,932;962,953,795,221,857;770,363,036,177,486;385,181,518,088,743;2;1;1;0,8;0,5;3;2907;1;TRUE;0,685459940652819;1917;2;1
135;5cecae631ba0238051da69264b836a4f;f;22;0;15;170,840,587,673,666;-20,943,951,023,932;785,949,869,081,503;628,759,895,265,203;314,379,947,632,601;0;2;2;0,8;0;2;2165;2;TRUE;1;1110;2;1
136;5cecae631ba0238051da69264b836a4f;f;22;0;16;0,123412284453916;20,943,951,023,932;695,629,798,014,114;48,694,085,860,988;194,776,343,443,952;1;1;1;0,7;0,4;3;2159;1;TRUE;1;1065;2;1
137;5cecae631ba0238051da69264b836a4f;f;22;0;17;0,336281822879218;-20,943,951,023,932;864,925,448,960,374;804,380,667,533,148;321,752,267,013,259;0;1;1;0,93;0;2;2473;2;FALSE;1;708;2;0
138;5cecae631ba0238051da69264b836a4f;f;22;0;18;415,929,068,646,036;20,943,951,023,932;119,368,133,890,568;107,431,320,501,511;537,156,602,507,556;0;2;2;0,9;0;2;2827;2;TRUE;0,71513353115727;1840;2;1
139;5cecae631ba0238051da69264b836a4f;f;22;0;19;309,049,493,853,296;-20,943,951,023,932;734,628,751,194,122;683,204,738,610,533;341,602,369,305,267;2;2;2;0,93;0,5;3;3635;2;TRUE;0,589020771513353;1852;2;1
140;5cecae631ba0238051da69264b836a4f;f;22;0;20;172,357,909,392,702;-20,943,951,023,932;87,030,415,418,139;609,212,907,926,973;182,763,872,378,092;0;1;1;0,7;0;2;2333;1;TRUE;1;1084;2;1
141;5cecae631ba0238051da69264b836a4f;f;22;0;21;56,842,313,971,333;20,943,951,023,932;782,531,530,158,778;743,404,953,650,839;297,361,981,460,336;2;1;1;0,95;0,4;3;2874;1;TRUE;0,882789317507418;1462;2;1
142;5cecae631ba0238051da69264b836a4f;f;22;0;22;321,013,157,619,449;-20,943,951,023,932;766,272,725,400,391;613,018,180,320,313;245,207,272,128,125;2;1;1;0,8;0,4;3;2891;1;TRUE;1;907;2;1
143;5cecae631ba0238051da69264b836a4f;f;22;0;23;305,186,040,805,799;20,943,951,023,932;767,747,599,854,255;729,360,219,861,542;364,680,109,930,771;0;1;1;0,95;0;2;2601;2;FALSE;0,72106824925816;1157;2;0
144;5cecae631ba0238051da69264b836a4f;f;22;0;24;222,703,806,257,337;20,943,951,023,932;277,386,792,352,016;257,969,716,887,375;773,909,150,662,125;0;2;2;0,93;0;2;3231;2;TRUE;0,93620178041543;2027;2;1
145;5cecae631ba0238051da69264b836a4f;f;22;0;25;380,391,610,895,811;20,943,951,023,932;637,608,654,749,287;573,847,789,274,358;573,847,789,274,358;1;2;2;0,9;0,1;3;2497;2;TRUE;0,913946587537092;1057;2;1
146;5cecae631ba0238051da69264b836a4f;f;22;0;26;254,136,042,221,298;-20,943,951,023,932;817,191,748,917,323;759,988,326,493,111;455,992,995,895,867;0;2;2;0,93;0;2;2678;2;TRUE;0,793768545994065;1657;2;1
147;5cecae631ba0238051da69264b836a4f;f;22;0;27;231,272,268,743,517;-20,943,951,023,932;596,039,738,364,263;536,435,764,527,837;107,287,152,905,567;0;2;2;0,9;0;2;3064;2;TRUE;0,749258160237389;1378;2;1
148;5cecae631ba0238051da69264b836a4f;f;22;0;28;482,894,450,712,951;-20,943,951,023,932;837,352,504,459,578;669,882,003,567,662;200,964,601,070,299;2;2;2;0,8;0,3;3;2672;2;TRUE;0,968842729970326;1031;2;1
149;5cecae631ba0238051da69264b836a4f;f;22;0;29;449,786,825,169,215;20,943,951,023,932;912,788,659,140,074;86,714,922,618,307;173,429,845,236,614;0;1;1;0,95;0;2;3293;1;TRUE;0,663204747774481;1000;2;1
150;5cecae631ba0238051da69264b836a4f;f;22;0;30;42,350,263,694,851;20,943,951,023,932;893,624,823,369,193;848,943,582,200,734;50,936,614,932,044;0;1;1;0,95;0;2;6508;1;TRUE;0,504451038575668;2286;2;1
151;5cecae631ba0238051da69264b836a4f;f;22;0;31;155,810,755,828,811;-20,943,951,023,932;876,602,259,950,544;78,894,203,395,549;157,788,406,791,098;0;1;1;0,9;0;2;3485;2;FALSE;0,152818991097923;3751;2;0
152;5cecae631ba0238051da69264b836a4f;f;22;0;32;594,073,439,987,594;-20,943,951,023,932;641,900,092,611,727;577,710,083,350,555;346,626,050,010,333;1;2;2;0,9;0,6;3;2842;2;TRUE;1;1094;2;1
153;5cecae631ba0238051da69264b836a4f;f;22;0;33;414,404,155,294,804;-20,943,951,023,932;750,723,264,666,031;675,650,938,199,428;405,390,562,919,657;0;1;1;0,9;0;2;2912;1;TRUE;0,93620178041543;2224;2;1
154;5cecae631ba0238051da69264b836a4f;f;22;0;34;544,352,800,037,804;20,943,951,023,932;936,910,401,819,855;890,064,881,728,862;445,032,440,864,431;2;2;2;0,95;0,5;3;2587;2;TRUE;0,643916913946588;955;2;1
155;5cecae631ba0238051da69264b836a4f;f;22;0;35;0,0722575891129144;-20,943,951,023,932;744,130,103,897,593;520,891,072,728,315;208,356,429,091,326;0;2;2;0,7;0;2;2468;2;TRUE;1;809;2;1
156;5cecae631ba0238051da69264b836a4f;f;22;0;36;561,126,624,477,683;-20,943,951,023,932;857,849,929,166,427;600,494,950,416,499;600,494,950,416,499;1;2;2;0,7;0,1;3;2041;2;TRUE;1;2926;2;1
157;5cecae631ba0238051da69264b836a4f;f;22;0;37;567,091,341,249,324;20,943,951,023,932;890,705,827,089,257;62,349,407,896,248;187,048,223,688,744;0;2;2;0,7;0;2;2775;2;TRUE;1;1002;2;1
158;5cecae631ba0238051da69264b836a4f;f;22;0;38;153,979,873,973,793;-20,943,951,023,932;770,552,691,800,915;616,442,153,440,732;18,493,264,603,222;1;1;1;0,8;0,3;3;2755;1;TRUE;0,85459940652819;1519;2;1
159;5cecae631ba0238051da69264b836a4f;f;22;0;39;0,562155527787559;20,943,951,023,932;718,338,108,474,637;502,836,675,932,246;251,418,337,966,123;1;2;2;0,7;0,5;3;2680;2;TRUE;1;1359;2;1
160;5cecae631ba0238051da69264b836a4f;f;22;0;40;323,415,285,679,755;20,943,951,023,932;704,702,948,166,422;655,373,741,794,773;393,224,245,076,864;0;1;1;0,93;0;2;2897;1;TRUE;0,658753709198813;1188;2;1
161;5cecae631ba0238051da69264b836a4f;f;22;0;41;28,563,045,898,928;-20,943,951,023,932;74,112,558,260,269;667,013,024,342,421;133,402,604,868,484;2;1;1;0,9;0,2;3;2800;1;TRUE;0,732937685459941;1407;2;1
162;5cecae631ba0238051da69264b836a4f;f;22;0;42;302,499,430,765,961;-20,943,951,023,932;893,559,404,125,848;848,881,433,919,555;509,328,860,351,733;0;2;2;0,95;0;2;3026;2;TRUE;0,29080118694362;1126;2;1
163;5cecae631ba0238051da69264b836a4f;f;22;0;43;0,87644019119741;20,943,951,023,932;112,558,571,979,445;101,302,714,781,501;405,210,859,126,002;0;2;2;0,9;0;2;2378;2;TRUE;1;1242;2;1
164;5cecae631ba0238051da69264b836a4f;f;22;0;44;470,845,092,028,902;20,943,951,023,932;753,417,515,017,506;715,746,639,266,631;429,447,983,559,978;1;1;1;0,95;0,6;3;3032;1;TRUE;0,856083086053412;1244;2;1
165;5cecae631ba0238051da69264b836a4f;f;22;0;45;548,719,637,656,853;-20,943,951,023,932;628,694,186,689,591;584,685,593,621,319;175,405,678,086,396;2;1;1;0,93;0,3;3;4293;2;FALSE;0,148367952522255;1081;2;0
166;5cecae631ba0238051da69264b836a4f;f;22;0;46;620,772,897,635,008;-20,943,951,023,932;721,640,240,548,723;577,312,192,438,979;230,924,876,975,591;1;2;2;0,8;0,4;3;2108;2;TRUE;0,980712166172107;1044;2;1
167;5cecae631ba0238051da69264b836a4f;f;22;0;47;343,962,002,994,277;-20,943,951,023,932;665,439,847,544,128;532,351,878,035,303;319,411,126,821,182;0;2;2;0,8;0;2;2297;2;TRUE;0,937685459940653;1666;2;1
168;5cecae631ba0238051da69264b836a4f;f;22;0;48;34,139,240,215,409;-20,943,951,023,932;839,365,550,404,409;780,609,961,876,101;780,609,961,876,101;0;1;1;0,93;0;2;2395;1;TRUE;0,954005934718101;4595;2;1
169;5cecae631ba0238051da69264b836a4f;f;22;0;49;325,158,789,583,346;-20,943,951,023,932;619,438,795,678,229;495,551,036,542,584;198,220,414,617,033;0;1;1;0,8;0;2;2608;1;TRUE;1;944;2;1
170;5cecae631ba0238051da69264b836a4f;f;22;0;50;530,862,009,140,758;20,943,951,023,932;809,342,840,289,521;768,875,698,275,045;230,662,709,482,514;1;2;2;0,95;0,3;3;4749;1;FALSE;0,660237388724036;1673;2;0
171;5cecae631ba0238051da69264b836a4f;f;22;0;51;426,543,663,695,148;-20,943,951,023,932;555,692,386,668,803;527,907,767,335,363;527,907,767,335,363;1;1;1;0,95;0,1;3;2486;1;TRUE;0,838278931750742;1170;2;1
172;5cecae631ba0238051da69264b836a4f;f;22;0;52;362,937,675,348,507;-20,943,951,023,932;953,065,847,757,631;762,452,678,206,105;762,452,678,206,105;1;2;2;0,8;0,1;3;2378;2;TRUE;0,86053412462908;1368;2;1
173;5cecae631ba0238051da69264b836a4f;f;22;0;53;0,433577350606265;20,943,951,023,932;83,180,354,040,336;582,262,478,282,352;11,645,249,565,647;0;2;2;0,7;0;2;2141;2;TRUE;1;1181;2;1
174;5cecae631ba0238051da69264b836a4f;f;22;0;54;201,634,474,734,199;20,943,951,023,932;725,693,382,479,422;507,985,367,735,595;304,791,220,641,357;1;1;1;0,7;0,6;3;2297;1;TRUE;0,925816023738872;1297;2;1
175;5cecae631ba0238051da69264b836a4f;f;22;0;55;0,438891998185365;-20,943,951,023,932;777,115,266,368,186;738,259,503,049,776;221,477,850,914,933;0;1;1;0,95;0;2;2916;2;FALSE;0,765578635014837;2024;2;0
176;5cecae631ba0238051da69264b836a4f;f;22;0;56;0,572671697617592;-20,943,951,023,932;685,584,872,412,157;651,305,628,791,549;195,391,688,637,465;2;1;1;0,95;0,3;3;2770;2;FALSE;0,583086053412463;1659;2;0
177;5cecae631ba0238051da69264b836a4f;f;22;0;57;0,483832804868819;20,943,951,023,932;819,621,772,361,696;762,248,248,296,377;228,674,474,488,913;0;1;1;0,93;0;2;3447;2;FALSE;0,345697329376855;1101;2;0
178;5cecae631ba0238051da69264b836a4f;f;22;0;58;223,026,781,969,822;-20,943,951,023,932;807,853,575,434,837;727,068,217,891,353;218,120,465,367,406;1;1;1;0,9;0,3;3;2269;1;TRUE;0,464391691394659;981;2;1
179;5cecae631ba0238051da69264b836a4f;f;22;0;59;146,984,729,724,473;20,943,951,023,932;618,931,509,234,446;433,252,056,464,112;433,252,056,464,112;0;1;1;0,7;0;2;2591;1;TRUE;0,882789317507418;1590;2;1
180;5cecae631ba0238051da69264b836a4f;f;22;0;60;478,431,981,430,316;20,943,951,023,932;860,297,783,201,695;602,208,448,241,187;301,104,224,120,593;0;2;2;0,7;0;2;1945;2;TRUE;1;925;2;1
181;5cecae631ba0238051da69264b836a4f;f;22;0;61;340,957,836,388,328;20,943,951,023,932;776,222,597,053,591;737,411,467,200,911;147,482,293,440,182;0;2;2;0,95;0;2;2813;2;TRUE;0,637982195845697;1109;2;1
182;5cecae631ba0238051da69264b836a4f;f;22;0;62;430,502,115,683,984;20,943,951,023,932;464,906,212,867,406;418,415,591,580,665;1,255,246,774,742;0;1;1;0,9;0;2;2910;1;TRUE;0,758160237388724;1376;2;1
183;5cecae631ba0238051da69264b836a4f;f;22;0;63;462,134,904,377,109;-20,943,951,023,932;897,564,363,843,311;80,780,792,745,898;40,390,396,372,949;2;1;1;0,9;0,5;3;3458;1;TRUE;0,635014836795252;865;2;1
184;5cecae631ba0238051da69264b836a4f;f;22;0;64;608,710,800,998,679;-20,943,951,023,932;815,107,024,566,473;652,085,619,653,178;391,251,371,791,907;0;1;1;0,8;0;2;2242;1;TRUE;0,940652818991098;913;2;1
185;5cecae631ba0238051da69264b836a4f;f;22;0;65;53,084,749,590,751;-20,943,951,023,932;761,162,898,942,474;685,046,609,048,227;411,027,965,428,936;0;2;2;0,9;0;2;2192;2;TRUE;1;935;2;1
186;5cecae631ba0238051da69264b836a4f;f;22;0;66;0,884683535328413;20,943,951,023,932;876,914,520,023,748;83,306,879,402,256;41,653,439,701,128;0;2;2;0,95;0;2;2466;2;TRUE;1;1005;2;1
187;5cecae631ba0238051da69264b836a4f;f;22;0;67;0,188834554619396;-20,943,951,023,932;441,816,088,561,181;309,271,261,992,826;154,635,630,996,413;2;1;1;0,7;0,5;3;2549;1;TRUE;0,84272997032641;888;2;1
188;5cecae631ba0238051da69264b836a4f;f;22;0;68;0,15385256206818;-20,943,951,023,932;38,314,176,189,034;363,984,673,795,823;109,195,402,138,747;0;2;2;0,95;0;2;3111;2;TRUE;0,637982195845697;1115;2;1
189;5cecae631ba0238051da69264b836a4f;f;22;0;69;131,970,017,097,714;-20,943,951,023,932;634,546,144,867,505;507,636,915,894,004;507,636,915,894,004;0;2;2;0,8;0;2;2818;2;TRUE;1;965;2;1
190;5cecae631ba0238051da69264b836a4f;f;22;0;70;463,519,015,310,643;20,943,951,023,932;510,237,916,399,101;408,190,333,119,281;244,914,199,871,569;1;2;2;0,8;0,6;3;2477;2;TRUE;0,915430267062315;1051;2;1
191;5cecae631ba0238051da69264b836a4f;f;22;0;71;259,902,018,440,031;-20,943,951,023,932;808,191,058,831,273;751,617,684,713,084;300,647,073,885,233;1;2;2;0,93;0,4;3;2783;2;TRUE;0,951038575667656;1251;2;1
192;5cecae631ba0238051da69264b836a4f;f;22;0;72;187,682,482,608,855;20,943,951,023,932;50,066,659,220,967;465,619,930,754,993;186,247,972,301,997;0;2;2;0,93;0;2;2806;2;TRUE;1;1056;2;1
193;5cecae631ba0238051da69264b836a4f;f;22;0;73;0,799036954645231;20,943,951,023,932;745,662,648,981,045;67,109,638,408,294;268,438,553,633,176;2;2;2;0,9;0,4;3;2809;2;TRUE;1;875;2;1
194;5cecae631ba0238051da69264b836a4f;f;22;0;74;0,451395013378027;-20,943,951,023,932;646,940,013,740,906;601,654,212,779,043;300,827,106,389,521;0;1;1;0,93;0;2;2190;2;FALSE;1;746;2;0
195;5cecae631ba0238051da69264b836a4f;f;22;0;75;57,722,542,741,199;-20,943,951,023,932;917,269,493,172,607;733,815,594,538,085;366,907,797,269,043;2;2;2;0,8;0,5;3;2484;2;TRUE;1;804;2;1
196;5cecae631ba0238051da69264b836a4f;f;22;0;76;0,962175743700379;20,943,951,023,932;414,620,910,949,343;331,696,728,759,474;995,090,186,278,422;0;1;1;0,8;0;2;2795;1;TRUE;0,321958456973294;2236;2;1
197;5cecae631ba0238051da69264b836a4f;f;22;0;77;205,749,942,970,521;20,943,951,023,932;82,935,518,580,097;771,300,322,794,902;231,390,096,838,471;1;2;2;0,93;0,3;3;2418;2;TRUE;0,884272997032641;1353;2;1
198;5cecae631ba0238051da69264b836a4f;f;22;0;78;38,616,484,040,348;-20,943,951,023,932;451,689,896,446,007;406,520,906,801,407;406,520,906,801,407;0;1;1;0,9;0;2;3101;1;TRUE;0,192878338278932;940;2;1
199;5cecae631ba0238051da69264b836a4f;f;22;0;79;514,305,641,423,538;20,943,951,023,932;878,535,200,436,388;834,608,440,414,568;166,921,688,082,914;1;2;2;0,95;0,2;3;3406;2;TRUE;0;1816;2;1
200;5cecae631ba0238051da69264b836a4f;f;22;0;80;191,830,483,914,487;20,943,951,023,932;429,840,968,983,611;399,752,101,154,759;399,752,101,154,759;2;2;2;0,93;0,1;3;2791;2;TRUE;0,333827893175074;916;2;1
201;5cecae631ba0238051da69264b836a4f;f;22;0;81;391,879,994,358,431;-20,943,951,023,932;531,010,763,913,189;47,790,968,752,187;238,954,843,760,935;0;1;1;0,9;0;2;2430;1;TRUE;0,927299703264095;1133;2;1
202;5cecae631ba0238051da69264b836a4f;f;22;0;82;224,274,557,603,915;-20,943,951,023,932;650,872,028,449,499;618,328,427,027,024;247,331,370,810,809;0;1;1;0,95;0;2;2134;2;FALSE;0,155786350148368;1128;2;0
203;5cecae631ba0238051da69264b836a4f;f;22;0;83;134,075,268,310,809;-20,943,951,023,932;972,096,883,414,998;874,887,195,073,499;524,932,317,044,099;1;1;1;0,9;0,6;3;2534;2;FALSE;0,468842729970326;1737;2;0
204;5cecae631ba0238051da69264b836a4f;f;22;0;84;40,884,652,538,687;20,943,951,023,932;700,904,167,241,829;560,723,333,793,463;224,289,333,517,385;0;2;2;0,8;0;2;2550;2;TRUE;1;929;2;1
205;5cecae631ba0238051da69264b836a4f;f;22;0;85;472,128,846,006,115;-20,943,951,023,932;966,278,352,704,612;77,302,268,216,369;154,604,536,432,738;0;1;1;0,8;0;2;2626;1;TRUE;1;983;2;1
206;5cecae631ba0238051da69264b836a4f;f;22;0;86;157,730,374,494,254;20,943,951,023,932;848,960,636,945,153;806,512,605,097,895;322,605,042,039,158;1;2;2;0,95;0,4;3;2849;2;TRUE;1;1356;2;1
207;5cecae631ba0238051da69264b836a4f;f;22;0;87;538,844,457,916,408;20,943,951,023,932;763,255,163,612,479;534,278,614,528,736;320,567,168,717,241;0;2;2;0,7;0;2;2258;2;TRUE;1;828;2;1
208;5cecae631ba0238051da69264b836a4f;f;22;0;88;61,427,777,795,475;-20,943,951,023,932;873,708,394,569,314;812,548,806,949,462;487,529,284,169,677;2;2;2;0,93;0,6;3;2570;2;TRUE;1;6260;2;1
209;5cecae631ba0238051da69264b836a4f;f;22;0;89;597,533,113,450,634;20,943,951,023,932;802,069,733,658,339;641,655,786,926,671;128,331,157,385,334;0;2;2;0,8;0;2;2214;2;TRUE;1;1092;2;1
210;5cecae631ba0238051da69264b836a4f;f;22;0;90;0,459283701029639;20,943,951,023,932;434,444,812,379,926;391,000,331,141,933;195,500,165,570,967;2;2;2;0,9;0,5;3;2903;2;TRUE;1;924;2;1
211;5cecae631ba0238051da69264b836a4f;f;22;0;91;0,00457229439761475;20,943,951,023,932;740,328,993,344,164;688,505,963,810,072;344,252,981,905,036;2;1;1;0,93;0,5;3;2771;1;TRUE;0,504451038575668;3436;2;1
212;5cecae631ba0238051da69264b836a4f;f;22;0;92;127,398,638,151,473;20,943,951,023,932;67,395,531,380,917;539,164,251,047,336;107,832,850,209,467;1;1;1;0,8;0,2;3;2907;2;FALSE;0,271513353115727;1688;2;0
213;5cecae631ba0238051da69264b836a4f;f;22;0;93;0,871837849406171;-20,943,951,023,932;647,662,629,378,226;453,363,840,564,758;906,727,681,129,517;0;1;1;0,7;0;2;2198;1;TRUE;0,593471810089021;1128;2;1
214;5cecae631ba0238051da69264b836a4f;f;22;0;94;296,435,302,834,797;20,943,951,023,932;654,075,347,949,822;457,852,743,564,875;18,314,109,742,595;0;1;1;0,7;0;2;2127;1;TRUE;1;899;2;1
215;5cecae631ba0238051da69264b836a4f;f;22;0;95;0,736474566827013;-20,943,951,023,932;594,420,007,544,598;564,699,007,167,368;225,879,602,866,947;0;2;2;0,95;0;2;2110;2;TRUE;1;1290;2;1
216;5cecae631ba0238051da69264b836a4f;f;22;0;96;117,645,620,519,277;20,943,951,023,932;121,305,408,684,013;109,174,867,815,612;218,349,735,631,223;1;2;2;0,9;0,2;3;2191;2;TRUE;1;1002;2;1
217;5cecae631ba0238051da69264b836a4f;f;22;0;97;404,013,937,262,471;-20,943,951,023,932;555,388,506,690,929;444,310,805,352,743;266,586,483,211,646;1;1;1;0,8;0,6;3;2169;1;TRUE;1;1108;2;1
218;5cecae631ba0238051da69264b836a4f;f;22;0;98;34,792,953,021,994;-20,943,951,023,932;58,399,711,956,454;408,797,983,695,178;817,595,967,390,355;1;2;2;0,7;0,2;3;3112;2;TRUE;1;1148;2;1
219;5cecae631ba0238051da69264b836a4f;f;22;0;99;561,795,062,877,646;-20,943,951,023,932;748,785,634,340,307;524,149,944,038,215;157,244,983,211,465;2;1;1;0,7;0,3;3;2361;1;TRUE;1;855;2;1
220;5cecae631ba0238051da69264b836a4f;f;22;0;100;0,369684679857571;-20,943,951,023,932;690,243,565,194,318;641,926,515,630,716;128,385,303,126,143;2;1;1;0,93;0,2;3;2487;2;FALSE;1;881;2;0
221;5cecae631ba0238051da69264b836a4f;f;22;0;101;247,734,220,716,696;-20,943,951,023,932;386,498,710,868,556;270,549,097,607,989;162,329,458,564,793;2;2;2;0,7;0,6;3;2131;2;TRUE;1;919;2;1
222;5cecae631ba0238051da69264b836a4f;f;22;0;102;406,386,055,279,402;-20,943,951,023,932;695,831,447,775,978;487,082,013,443,185;487,082,013,443,185;0;2;2;0,7;0;2;2230;2;TRUE;1;971;2;1
223;5cecae631ba0238051da69264b836a4f;f;22;0;103;434,878,090,848,713;-20,943,951,023,932;396,172,162,491,069;277,320,513,743,748;138,660,256,871,874;0;1;1;0,7;0;2;2390;1;TRUE;1;920;2;1
224;5cecae631ba0238051da69264b836a4f;f;22;0;104;0,97545567437436;-20,943,951,023,932;907,835,307,458,576;817,051,776,712,718;326,820,710,685,087;0;1;1;0,9;0;2;2855;2;FALSE;1;1119;2;0
225;5cecae631ba0238051da69264b836a4f;f;22;0;105;268,702,650,900,133;20,943,951,023,932;708,139,475,784,482;658,569,712,479,568;131,713,942,495,914;2;2;2;0,93;0,2;3;3073;2;TRUE;0,734421364985163;808;2;1
226;5cecae631ba0238051da69264b836a4f;f;22;0;106;189,703,986,104,977;20,943,951,023,932;743,947,431,074,518;691,871,110,899,302;691,871,110,899,302;0;2;2;0,93;0;2;2102;2;TRUE;1;919;2;1
227;5cecae631ba0238051da69264b836a4f;f;22;0;107;111,603,832,623,332;-20,943,951,023,932;908,518,573,205,396;817,666,715,884,857;245,300,014,765,457;1;2;2;0,9;0,3;3;2104;2;TRUE;1;843;2;1
228;5cecae631ba0238051da69264b836a4f;f;22;0;108;581,763,333,663,819;-20,943,951,023,932;118,734,948,275,632;11,279,820,086,185;11,279,820,086,185;2;2;2;0,95;0,1;3;2124;2;TRUE;1;1220;2;1
229;5cecae631ba0238051da69264b836a4f;f;22;0;109;402,283,841,846,605;20,943,951,023,932;782,820,952,807,014;728,023,486,110,523;436,814,091,666,314;1;1;1;0,93;0,6;3;2464;1;TRUE;0,345697329376855;964;2;1
230;5cecae631ba0238051da69264b836a4f;f;22;0;110;188,649,793,818,683;20,943,951,023,932;831,065,418,877,177;789,512,147,933,318;789,512,147,933,318;0;2;2;0,95;0;2;2030;2;TRUE;1;1184;2;1
231;5cecae631ba0238051da69264b836a4f;f;22;0;111;585,081,053,378,421;-20,943,951,023,932;819,700,203,501,222;655,760,162,800,978;131,152,032,560,196;1;2;2;0,8;0,2;3;2895;2;TRUE;1;956;2;1
232;5cecae631ba0238051da69264b836a4f;f;22;0;112;496,492,035,722,355;-20,943,951,023,932;111,500,724,683,655;892,005,797,469,243;892,005,797,469,243;0;1;1;0,8;0;2;2745;1;TRUE;1;786;2;1
233;5cecae631ba0238051da69264b836a4f;f;22;0;113;0,0237398313283826;20,943,951,023,932;539,083,489,734,419;50,134,764,545,301;250,673,822,726,505;0;2;2;0,93;0;2;3441;2;TRUE;0,5;2783;2;1
234;5cecae631ba0238051da69264b836a4f;f;22;0;114;605,956,721,326,679;20,943,951,023,932;81,549,441,622,705;774,719,695,415,698;15,494,393,908,314;2;1;1;0,95;0,2;3;2793;1;TRUE;0,455489614243323;1511;2;1
235;5cecae631ba0238051da69264b836a4f;f;22;0;115;102,915,841,119,272;-20,943,951,023,932;472,757,224,756,842;425,481,502,281,158;127,644,450,684,347;0;2;2;0,9;0;2;2749;2;TRUE;0,712166172106825;1305;2;1
236;5cecae631ba0238051da69264b836a4f;f;22;0;116;0,608943260431304;-20,943,951,023,932;113,535,755,907,851;79,475,029,135,496;158,950,058,270,992;2;1;1;0,7;0,2;3;2316;1;TRUE;1;1067;2;1
237;5cecae631ba0238051da69264b836a4f;f;22;0;117;490,050,037,847,423;-20,943,951,023,932;818,703,322,744,814;761,394,090,152,677;761,394,090,152,677;2;1;1;0,93;0,1;3;3072;1;TRUE;1;1268;2;1
238;5cecae631ba0238051da69264b836a4f;f;22;0;118;100,481,051,404,839;-20,943,951,023,932;946,963,220,239,399;662,874,254,167,579;662,874,254,167,579;2;1;1;0,7;0,1;3;2751;1;TRUE;0,529673590504451;1359;2;1
239;5cecae631ba0238051da69264b836a4f;f;22;0;119;382,764,163,528,776;20,943,951,023,932;748,229,816,545,522;523,760,871,581,865;15,712,826,147,456;1;2;2;0,7;0,3;3;2178;2;TRUE;1;855;2;1
240;5cecae631ba0238051da69264b836a4f;f;22;0;120;234,745,478,152,948;-20,943,951,023,932;610,675,039,248,926;567,927,786,501,501;1,135,855,573,003;0;2;2;0,93;0;2;2767;2;TRUE;1;919;2;1
361;ab4b9298c9a5df9a99d4e0f501bb4c70;m;32;1;1;537,061,445,200,951;-20,943,951,023,932;441,770,330,062,151;410,846,406,957,801;24,650,784,417,468;1;2;2;0,93;0,6;3;2486;2;TRUE;0,973782828684603;1269;3;1
362;ab4b9298c9a5df9a99d4e0f501bb4c70;m;32;1;2;384,336,602,781,882;20,943,951,023,932;542,514,212,665,349;488,262,791,398,814;976,525,582,797,629;0;2;2;0,9;0;2;3121;2;TRUE;0,51123595505618;3882;3;1
363;ab4b9298c9a5df9a99d4e0f501bb4c70;m;32;1;3;0,0906390461165647;20,943,951,023,932;5,619,300,587,634;53,383,355,582,523;213,533,422,330,092;0;1;1;0,95;0;2;2242;2;FALSE;0,503745346926571;4315;3;0
364;ab4b9298c9a5df9a99d4e0f501bb4c70;m;32;1;4;326,096,113,905,349;-20,943,951,023,932;507,263,376,065,417;471,754,939,740,838;283,052,963,844,503;2;1;1;0,93;0,6;3;2080;2;FALSE;0,662921348314607;2296;3;0
365;ab4b9298c9a5df9a99d4e0f501bb4c70;m;32;1;5;162,078,674,678,897;20,943,951,023,932;657,999,458,885,026;592,199,512,996,523;177,659,853,898,957;2;1;1;0,9;0,3;3;1881;1;TRUE;0,771535637673367;1762;3;1
366;ab4b9298c9a5df9a99d4e0f501bb4c70;m;32;1;6;604,546,006,219,176;-20,943,951,023,932;676,868,079,168,377;609,181,271,251,539;243,672,508,500,616;0;1;1;0,9;0;2;2584;2;FALSE;0,503745346926571;5620;3;0
367;ab4b9298c9a5df9a99d4e0f501bb4c70;m;32;1;7;480,813,791,494,937;-20,943,951,023,932;458,595,348,675,071;412,735,813,807,564;412,735,813,807,564;0;2;2;0,9;0;2;2109;1;FALSE;0,60861428935876;5403;3;0
368;ab4b9298c9a5df9a99d4e0f501bb4c70;m;32;1;8;159,830,201,105,101;20,943,951,023,932;590,972,743,927,832;472,778,195,142,266;14,183,345,854,268;0;2;2;0,8;0;2;1946;2;TRUE;0,917603053403704;953;3;1
369;ab4b9298c9a5df9a99d4e0f501bb4c70;m;32;1;9;424,675,119,185,466;-20,943,951,023,932;31,491,700,082,833;283,425,300,745,497;566,850,601,490,994;1;2;2;0,9;0,2;3;1886;2;TRUE;0,750936358162526;906;3;1
370;ab4b9298c9a5df9a99d4e0f501bb4c70;m;32;1;10;174,407,807,177,678;20,943,951,023,932;660,412,230,615,374;614,183,374,472,298;614,183,374,472,298;2;1;1;0,93;0,1;3;2318;1;TRUE;0,353932584269663;2466;3;1
371;ab4b9298c9a5df9a99d4e0f501bb4c70;m;32;1;11;0,746859156236534;20,943,951,023,932;505,680,472,726,914;404,544,378,181,531;161,817,751,272,613;0;2;2;0,8;0;2;1762;2;TRUE;0,5430711896232;3619;3;1
372;ab4b9298c9a5df9a99d4e0f501bb4c70;m;32;1;12;282,950,738,430,872;20,943,951,023,932;387,368,920,918,737;271,158,244,643,116;813,474,733,929,349;1;2;2;0,7;0,3;3;1837;2;TRUE;0,842696629213483;5957;3;1
373;ab4b9298c9a5df9a99d4e0f501bb4c70;m;32;1;13;0,601830222145536;-20,943,951,023,932;634,526,421,028,476;444,168,494,719,933;13,325,054,841,598;0;2;2;0,7;0;2;1816;2;TRUE;1;741;3;1
374;ab4b9298c9a5df9a99d4e0f501bb4c70;m;32;1;14;34,364,262,407,836;20,943,951,023,932;561,454,864,246,437;533,382,121,034,115;320,029,272,620,469;1;2;2;0,95;0,6;3;1841;2;TRUE;0,940074963516064;851;3;1
375;ab4b9298c9a5df9a99d4e0f501bb4c70;m;32;1;15;498,281,563,059,655;20,943,951,023,932;657,363,612,429,232;591,627,251,186,309;236,650,900,474,523;1;2;2;0,9;0,4;3;1748;2;TRUE;0,887640449438202;927;3;1
376;ab4b9298c9a5df9a99d4e0f501bb4c70;m;32;1;16;493,379,614,837,502;20,943,951,023,932;433,257,505,348,509;303,280,253,743,956;151,640,126,871,978;1;1;1;0,7;0,5;3;1899;1;TRUE;0,883895188235165;1042;3;1
377;ab4b9298c9a5df9a99d4e0f501bb4c70;m;32;1;17;26,171,319,159,144;20,943,951,023,932;430,469,722,456,103;408,946,236,333,298;163,578,494,533,319;1;2;2;0,95;0,4;3;1892;2;TRUE;0,470037481758032;808;3;1
378;ab4b9298c9a5df9a99d4e0f501bb4c70;m;32;1;18;0,0464739414395331;20,943,951,023,932;570,000,706,824,422;530,100,657,346,712;106,020,131,469,342;1;2;2;0,93;0,2;3;2186;2;TRUE;0,357677931196234;943;3;1
379;ab4b9298c9a5df9a99d4e0f501bb4c70;m;32;1;19;451,172,818,937,602;20,943,951,023,932;793,571,971,872,568;634,857,577,498,054;380,914,546,498,832;2;1;1;0,8;0,6;3;1758;1;TRUE;0,602996311830671;828;3;1
380;ab4b9298c9a5df9a99d4e0f501bb4c70;m;32;1;20;256,206,578,051,399;20,943,951,023,932;649,753,150,573,362;604,270,430,033,226;241,708,172,013,291;2;2;2;0,93;0,4;3;1786;2;TRUE;0,48314606741573;3301;3;1
381;ab4b9298c9a5df9a99d4e0f501bb4c70;m;32;1;21;187,395,786,085,549;20,943,951,023,932;54,747,977,916,615;492,731,801,249,535;147,819,540,374,861;0;2;2;0,9;0;2;1910;2;TRUE;0,292134831460674;1001;3;1
382;ab4b9298c9a5df9a99d4e0f501bb4c70;m;32;1;22;508,519,283,618,934;-20,943,951,023,932;643,425,407,714,254;579,082,866,942,828;289,541,433,471,414;0;1;1;0,9;0;2;1791;1;TRUE;0,51123595505618;3676;3;1
383;ab4b9298c9a5df9a99d4e0f501bb4c70;m;32;1;23;4,568,521,569,668;-20,943,951,023,932;401,493,722,597,989;36,134,435,033,819;36,134,435,033,819;0;1;1;0,9;0;2;2537;1;TRUE;0,232209752114971;1002;3;1
384;ab4b9298c9a5df9a99d4e0f501bb4c70;m;32;1;24;535,483,212,885,619;20,943,951,023,932;408,278,334,691,024;285,794,834,283,717;571,589,668,567,433;2;2;2;0,7;0,2;3;1888;2;TRUE;0,6423221545273;1866;3;1
385;ab4b9298c9a5df9a99d4e0f501bb4c70;m;32;1;25;453,213,093,494,377;-20,943,951,023,932;82,826,774,314,211;770,289,001,122,162;385,144,500,561,081;2;1;1;0,93;0,5;3;1889;1;TRUE;0,359550561797753;865;3;1
386;ab4b9298c9a5df9a99d4e0f501bb4c70;m;32;1;26;473,159,971,636,667;20,943,951,023,932;539,009,101,706,321;512,058,646,621,005;256,029,323,310,503;2;1;1;0,95;0,5;3;1853;2;FALSE;0,383895188235165;860;3;0
387;ab4b9298c9a5df9a99d4e0f501bb4c70;m;32;1;27;229,686,663,930,296;20,943,951,023,932;764,814,213,342,149;711,277,218,408,199;21,338,316,552,246;0;1;1;0,93;0;2;1947;1;TRUE;0,421348314606742;1105;3;1
388;ab4b9298c9a5df9a99d4e0f501bb4c70;m;32;1;28;285,478,476,338,361;20,943,951,023,932;412,118,871,156,917;329,695,096,925,534;19,781,705,815,532;0;1;1;0,8;0;2;1823;1;TRUE;0,232209752114971;1165;3;1
389;ab4b9298c9a5df9a99d4e0f501bb4c70;m;32;1;29;60,976,705,237,501;-20,943,951,023,932;630,793,268,167,974;599,253,604,759,575;359,552,162,855,745;0;2;2;0,95;0;2;2071;1;FALSE;0,194756582881627;889;3;0
390;ab4b9298c9a5df9a99d4e0f501bb4c70;m;32;1;30;492,951,558,421,584;20,943,951,023,932;536,137,990,065,394;498,608,330,760,816;149,582,499,228,245;2;2;2;0,93;0,3;3;1691;2;TRUE;0,385767818836684;803;3;1
391;ab4b9298c9a5df9a99d4e0f501bb4c70;m;32;1;31;181,025,179,470,358;-20,943,951,023,932;706,613,835,086,049;671,283,143,331,746;268,513,257,332,699;0;2;2;0,95;0;2;1672;2;TRUE;0,57116107726365;916;3;1
392;ab4b9298c9a5df9a99d4e0f501bb4c70;m;32;1;32;0,688952925679882;-20,943,951,023,932;469,356,380,535,897;436,501,433,898,385;174,600,573,559,354;0;2;2;0,93;0;2;2025;2;TRUE;0,279026245802976;900;3;1
393;ab4b9298c9a5df9a99d4e0f501bb4c70;m;32;1;33;327,210,053,992,165;20,943,951,023,932;595,021,654,820,527;535,519,489,338,474;321,311,693,603,084;0;1;1;0,9;0;2;1850;1;TRUE;0,514981301982751;1762;3;1
394;ab4b9298c9a5df9a99d4e0f501bb4c70;m;32;1;34;518,176,808,932,111;20,943,951,023,932;61,040,276,172,217;579,882,623,636,061;173,964,787,090,818;1;1;1;0,95;0,3;3;1716;1;TRUE;0,5430711896232;1523;3;1
395;ab4b9298c9a5df9a99d4e0f501bb4c70;m;32;1;35;201,942,417,239,227;-20,943,951,023,932;74,450,621,502,524;595,604,972,020,192;238,241,988,808,077;0;1;1;0,8;0;2;1704;1;TRUE;0,338951368010446;2029;3;1
396;ab4b9298c9a5df9a99d4e0f501bb4c70;m;32;1;36;43,862,949,472,475;20,943,951,023,932;530,373,101,568,262;477,335,791,411,436;238,667,895,705,718;0;2;2;0,9;0;2;2417;2;TRUE;0,402621751420953;2687;3;1
397;ab4b9298c9a5df9a99d4e0f501bb4c70;m;32;1;37;320,815,800,257,341;-20,943,951,023,932;326,291,223,286,008;309,976,662,121,708;619,953,324,243,416;2;1;1;0,95;0,2;3;1907;2;FALSE;0,599250964904099;2500;3;0
398;ab4b9298c9a5df9a99d4e0f501bb4c70;m;32;1;38;130,106,885,713,616;-20,943,951,023,932;535,369,230,409,968;428,295,384,327,975;856,590,768,655,949;0;2;2;0,8;0;2;1748;2;TRUE;0,492509391870391;4217;3;1
399;ab4b9298c9a5df9a99d4e0f501bb4c70;m;32;1;39;623,646,321,426,088;-20,943,951,023,932;521,290,286,282,514;495,225,771,968,388;990,451,543,936,776;0;1;1;0,95;0;2;2691;1;TRUE;0,295880178387245;851;3;1
400;ab4b9298c9a5df9a99d4e0f501bb4c70;m;32;1;40;263,550,237,226,124;-20,943,951,023,932;585,288,846,267,405;468,231,077,013,924;234,115,538,506,962;2;1;1;0,8;0,5;3;1841;1;TRUE;0,580524401718311;1382;3;1
401;ab4b9298c9a5df9a99d4e0f501bb4c70;m;32;1;41;285,462,259,081,103;20,943,951,023,932;777,389,249,773,406;722,972,002,289,267;361,486,001,144,634;1;2;2;0,93;0,5;3;1601;2;TRUE;0,623595505617977;1152;3;1
402;ab4b9298c9a5df9a99d4e0f501bb4c70;m;32;1;42;354,721,604,957,988;20,943,951,023,932;599,802,158,762,019;419,861,511,133,413;125,958,453,340,024;1;1;1;0,7;0,3;3;1660;1;TRUE;0,700374560409717;755;3;1
403;ab4b9298c9a5df9a99d4e0f501bb4c70;m;32;1;43;47,930,437,615,915;20,943,951,023,932;565,755,310,176,918;537,467,544,668,072;268,733,772,334,036;1;2;2;0,95;0,5;3;2326;2;TRUE;0,308988764044944;1159;3;1
404;ab4b9298c9a5df9a99d4e0f501bb4c70;m;32;1;44;0,561130374429282;20,943,951,023,932;579,670,340,122,915;405,769,238,086,041;243,461,542,851,624;0;1;1;0,7;0;2;1758;1;TRUE;0,749063727561008;868;3;1
405;ab4b9298c9a5df9a99d4e0f501bb4c70;m;32;1;45;123,276,309,439,098;-20,943,951,023,932;587,044,311,067,272;410,931,017,747,091;205,465,508,873,545;2;2;2;0,7;0,5;3;1701;2;TRUE;0,6423221545273;810;3;1
406;ab4b9298c9a5df9a99d4e0f501bb4c70;m;32;1;46;175,104,619,657,457;-20,943,951,023,932;480,411,898,061,366;43,237,070,825,523;129,711,212,476,569;0;1;1;0,9;0;2;1851;1;TRUE;0,458801526701852;831;3;1
407;ab4b9298c9a5df9a99d4e0f501bb4c70;m;32;1;47;230,942,102,777,186;-20,943,951,023,932;568,231,491,751,446;454,585,193,401,157;909,170,386,802,314;2;1;1;0,8;0,2;3;1692;1;TRUE;0,406367098347525;843;3;1
408;ab4b9298c9a5df9a99d4e0f501bb4c70;m;32;1;48;486,983,934,837,183;-20,943,951,023,932;570,352,760,804,406;541,835,122,764,186;270,917,561,382,093;0;1;1;0,95;0;2;1641;1;TRUE;0,301498155915335;1231;3;1
409;ab4b9298c9a5df9a99d4e0f501bb4c70;m;32;1;49;204,792,413,060,708;20,943,951,023,932;673,209,368,827,838;471,246,558,179,487;282,747,934,907,692;1;2;2;0,7;0,6;3;1624;2;TRUE;0,661048717713088;1201;3;1
410;ab4b9298c9a5df9a99d4e0f501bb4c70;m;32;1;50;107,650,381,105,288;20,943,951,023,932;727,397,934,214,955;509,178,553,950,468;509,178,553,950,468;2;1;1;0,7;0,1;3;1639;1;TRUE;0,812734110971515;861;3;1
411;ab4b9298c9a5df9a99d4e0f501bb4c70;m;32;1;51;181,278,639,326,671;20,943,951,023,932;57,710,502,545,762;403,973,517,820,334;1,211,920,553,461;0;1;1;0,7;0;2;1632;1;TRUE;0,715355862392468;729;3;1
412;ab4b9298c9a5df9a99d4e0f501bb4c70;m;32;1;52;0,798055493028033;-20,943,951,023,932;517,679,652,954,106;481,442,077,247,319;481,442,077,247,319;1;2;2;0,93;0,1;3;1912;2;TRUE;0,232209752114971;892;3;1
413;ab4b9298c9a5df9a99d4e0f501bb4c70;m;32;1;53;303,750,524,780,249;20,943,951,023,932;492,162,175,461,384;344,513,522,822,968;137,805,409,129,187;1;2;2;0,7;0,4;3;1620;2;TRUE;0,320224719101124;962;3;1
414;ab4b9298c9a5df9a99d4e0f501bb4c70;m;32;1;54;0,218112095006332;-20,943,951,023,932;737,036,295,478,949;663,332,665,931,054;265,333,066,372,422;0;2;2;0,9;0;2;1938;2;TRUE;0,191011235955056;829;3;1
415;ab4b9298c9a5df9a99d4e0f501bb4c70;m;32;1;55;172,367,542,583,679;20,943,951,023,932;577,611,620,586,981;537,178,807,145,893;268,589,403,572,946;0;1;1;0,93;0;2;1868;1;TRUE;0,402621751420953;1079;3;1
416;ab4b9298c9a5df9a99d4e0f501bb4c70;m;32;1;56;300,093,346,928,433;20,943,951,023,932;354,250,794,196,487;318,825,714,776,839;191,295,428,866,103;1;2;2;0,9;0,6;3;1697;2;TRUE;0,265917660145277;842;3;1
417;ab4b9298c9a5df9a99d4e0f501bb4c70;m;32;1;57;198,175,249,465,847;-20,943,951,023,932;727,305,151,192,035;509,113,605,834,424;305,468,163,500,655;0;2;2;0,7;0;2;1696;2;TRUE;0,771535637673367;1184;3;1
418;ab4b9298c9a5df9a99d4e0f501bb4c70;m;32;1;58;602,090,943,836,783;-20,943,951,023,932;571,235,919,434,242;54,267,412,346,253;108,534,824,692,506;2;2;2;0,95;0,2;3;2953;2;TRUE;0,247191011235955;870;3;1
419;ab4b9298c9a5df9a99d4e0f501bb4c70;m;32;1;59;346,218,966,315,138;20,943,951,023,932;555,088,308,183,093;499,579,477,364,784;149,873,843,209,435;1;2;2;0,9;0,3;3;1534;2;TRUE;0,402621751420953;1517;3;1
420;ab4b9298c9a5df9a99d4e0f501bb4c70;m;32;1;60;0,994414717509837;20,943,951,023,932;39,401,715,177,591;315,213,721,420,728;315,213,721,420,728;0;1;1;0,8;0;2;1651;1;TRUE;0,503745346926571;717;3;1
421;ab4b9298c9a5df9a99d4e0f501bb4c70;m;32;1;61;546,175,968,783,823;20,943,951,023,932;47,349,620,948,409;440,351,474,820,204;220,175,737,410,102;0;2;2;0,93;0;2;1555;2;TRUE;0,593632987376009;850;3;1
422;ab4b9298c9a5df9a99d4e0f501bb4c70;m;32;1;62;419,796,579,139,723;-20,943,951,023,932;671,683,712,900,464;537,346,970,320,371;537,346,970,320,371;0;2;2;0,8;0;2;1637;2;TRUE;0,518726648909322;1588;3;1
423;ab4b9298c9a5df9a99d4e0f501bb4c70;m;32;1;63;0,330006260540872;-20,943,951,023,932;472,220,497,957,617;424,998,448,161,856;424,998,448,161,856;2;1;1;0,9;0,1;3;1632;1;TRUE;0,258426966292135;1199;3;1
424;ab4b9298c9a5df9a99d4e0f501bb4c70;m;32;1;64;257,255,535,771,236;20,943,951,023,932;48,689,190,687,927;452,809,473,397,721;905,618,946,795,443;0;1;1;0,93;0;2;1677;1;TRUE;0,290262200859156;955;3;1
425;ab4b9298c9a5df9a99d4e0f501bb4c70;m;32;1;65;48,466,318,424,485;20,943,951,023,932;69,789,930,603,121;558,319,444,824,968;16,749,583,344,749;1;1;1;0,8;0,3;3;1656;1;TRUE;0,661048717713088;680;3;1
426;ab4b9298c9a5df9a99d4e0f501bb4c70;m;32;1;66;502,557,234,410,432;20,943,951,023,932;623,790,525,681,439;499,032,420,545,151;149,709,726,163,545;2;2;2;0,8;0,3;3;1611;2;TRUE;0,597378334302581;819;3;1
427;ab4b9298c9a5df9a99d4e0f501bb4c70;m;32;1;67;305,765,676,245,836;20,943,951,023,932;445,742,219,913,293;423,455,108,917,629;254,073,065,350,577;0;1;1;0,95;0;2;1773;1;TRUE;0,224719101123595;687;3;1
428;ab4b9298c9a5df9a99d4e0f501bb4c70;m;32;1;68;375,693,727,132,957;20,943,951,023,932;313,552,730,106,211;250,842,184,084,969;752,526,552,254,908;0;1;1;0,8;0;2;1695;1;TRUE;0,612359550561798;747;3;1
429;ab4b9298c9a5df9a99d4e0f501bb4c70;m;32;1;69;208,004,383,849,461;20,943,951,023,932;61,780,362,662,362;556,023,263,961,258;333,613,958,376,755;0;2;2;0,9;0;2;1715;2;TRUE;0,204119864474522;746;3;1
430;ab4b9298c9a5df9a99d4e0f501bb4c70;m;32;1;70;252,050,093,280,441;-20,943,951,023,932;530,984,312,580,897;371,689,018,806,628;743,378,037,613,255;0;2;2;0,7;0;2;1761;2;TRUE;0,513108671381232;725;3;1
431;ab4b9298c9a5df9a99d4e0f501bb4c70;m;32;1;71;326,275,218,714,397;-20,943,951,023,932;719,261,513,098,917;668,913,207,181,992;668,913,207,181,992;0;1;1;0,93;0;2;2112;2;FALSE;0,205992537937807;773;3;0
432;ab4b9298c9a5df9a99d4e0f501bb4c70;m;32;1;72;0,444557769170746;20,943,951,023,932;526,710,599,343,673;489,840,857,389,616;489,840,857,389,616;0;2;2;0,93;0;2;1821;2;TRUE;0,230337078651685;735;3;1
433;ab4b9298c9a5df9a99d4e0f501bb4c70;m;32;1;73;470,347,136,089,556;-20,943,951,023,932;443,070,806,131,051;398,763,725,517,946;797,527,451,035,892;1;1;1;0,9;0,2;3;1830;1;TRUE;0,58239703231983;1996;3;1
434;ab4b9298c9a5df9a99d4e0f501bb4c70;m;32;1;74;442,900,538,682,193;-20,943,951,023,932;620,418,784,642,459;558,376,906,178,213;335,026,143,706,928;2;1;1;0,9;0,6;3;2312;1;TRUE;0,295880178387245;1390;3;1
435;ab4b9298c9a5df9a99d4e0f501bb4c70;m;32;1;75;428,935,438,778,182;-20,943,951,023,932;661,339,959,622,834;595,205,963,660,551;297,602,981,830,275;2;2;2;0,9;0,5;3;1759;2;TRUE;0,661048717713088;1244;3;1
436;ab4b9298c9a5df9a99d4e0f501bb4c70;m;32;1;76;283,325,417,875,955;-20,943,951,023,932;520,309,353,125,708;416,247,482,500,567;208,123,741,250,283;0;1;1;0,8;0;2;1873;2;FALSE;0,161048717713088;698;3;0
437;ab4b9298c9a5df9a99d4e0f501bb4c70;m;32;1;77;105,481,646,673,049;-20,943,951,023,932;596,985,591,410,124;477,588,473,128,099;955,176,946,256,199;0;1;1;0,8;0;2;1731;2;FALSE;0,198501886946432;832;3;0
438;ab4b9298c9a5df9a99d4e0f501bb4c70;m;32;1;78;147,930,429,152,044;-20,943,951,023,932;755,908,217,813,208;604,726,574,250,567;241,890,629,700,227;1;2;2;0,8;0,4;3;1650;2;TRUE;0,640449438202247;1106;3;1
439;ab4b9298c9a5df9a99d4e0f501bb4c70;m;32;1;79;276,141,187,174,217;20,943,951,023,932;541,050,712,937,193;378,735,499,056,035;151,494,199,622,414;1;1;1;0,7;0,4;3;1911;1;TRUE;0,602996311830671;2055;3;1
440;ab4b9298c9a5df9a99d4e0f501bb4c70;m;32;1;80;336,968,199,804,382;20,943,951,023,932;293,605,358,673,734;205,523,751,071,614;205,523,751,071,614;2;2;2;0,7;0,1;3;1693;2;TRUE;0,745318380634436;826;3;1
441;ab4b9298c9a5df9a99d4e0f501bb4c70;m;32;1;81;262,217,043,324,981;-20,943,951,023,932;429,085,435,826,005;343,268,348,660,804;343,268,348,660,804;1;2;2;0,8;0,1;3;1707;2;TRUE;0,932584269662921;919;3;1
442;ab4b9298c9a5df9a99d4e0f501bb4c70;m;32;1;82;0,670421536199872;-20,943,951,023,932;588,118,801,103,923;529,306,920,993,531;211,722,768,397,412;2;1;1;0,9;0,4;3;2622;1;TRUE;0,314606741573034;695;3;1
443;ab4b9298c9a5df9a99d4e0f501bb4c70;m;32;1;83;484,584,637,443,539;20,943,951,023,932;598,952,300,527,415;479,161,840,421,932;239,580,920,210,966;2;2;2;0,8;0,5;3;1648;2;TRUE;0,853932584269663;631;3;1
444;ab4b9298c9a5df9a99d4e0f501bb4c70;m;32;1;84;302,444,168,689,545;20,943,951,023,932;498,213,508,826,101;398,570,807,060,881;797,141,614,121,761;1;2;2;0,8;0,2;3;1612;2;TRUE;0,857677931196234;659;3;1
445;ab4b9298c9a5df9a99d4e0f501bb4c70;m;32;1;85;321,342,554,147,911;-20,943,951,023,932;538,933,701,477,343;431,146,961,181,875;17,245,878,447,275;2;1;1;0,8;0,4;3;2903;1;TRUE;0,308988764044944;869;3;1
446;ab4b9298c9a5df9a99d4e0f501bb4c70;m;32;1;86;456,758,451,934,546;-20,943,951,023,932;43,220,233,531,874;410,592,218,552,803;123,177,665,565,841;2;2;2;0,95;0,3;3;1793;2;TRUE;0,297752808988764;1429;3;1
447;ab4b9298c9a5df9a99d4e0f501bb4c70;m;32;1;87;557,560,097,211,037;-20,943,951,023,932;647,672,761,644,022;58,290,548,547,962;116,581,097,095,924;0;1;1;0,9;0;2;2852;2;FALSE;0,179775280898876;924;3;0
448;ab4b9298c9a5df9a99d4e0f501bb4c70;m;32;1;88;483,729,707,497,962;20,943,951,023,932;711,168,160,748,551;675,609,752,711,124;202,682,925,813,337;0;2;2;0,95;0;2;1673;2;TRUE;0,316479457898086;897;3;1
449;ab4b9298c9a5df9a99d4e0f501bb4c70;m;32;1;89;511,872,286,556,048;-20,943,951,023,932;55,369,557,904,271;387,586,905,329,897;193,793,452,664,948;0;1;1;0,7;0;2;1662;1;TRUE;0,455056179775281;1590;3;1
450;ab4b9298c9a5df9a99d4e0f501bb4c70;m;32;1;90;389,726,251,571,064;-20,943,951,023,932;632,331,650,950,003;588,068,435,383,503;176,420,530,615,051;1;1;1;0,93;0,3;3;2004;2;FALSE;0,372659233178985;1086;3;0
451;ab4b9298c9a5df9a99d4e0f501bb4c70;m;32;1;91;474,237,480,412,861;20,943,951,023,932;26,754,812,770,431;254,170,721,319,094;101,668,288,527,638;2;1;1;0,95;0,4;3;3143;2;FALSE;0,363295908724324;758;3;0
452;ab4b9298c9a5df9a99d4e0f501bb4c70;m;32;1;92;592,642,588,172,304;-20,943,951,023,932;541,901,893,293,262;379,331,325,305,283;151,732,530,122,113;0;1;1;0,7;0;2;1496;1;TRUE;0,657303370786517;866;3;1
453;ab4b9298c9a5df9a99d4e0f501bb4c70;m;32;1;93;31,723,750,656,039;20,943,951,023,932;527,270,501,219,787;474,543,451,097,809;474,543,451,097,809;2;2;2;0,9;0,1;3;2426;1;FALSE;0,177902650297358;675;3;0
454;ab4b9298c9a5df9a99d4e0f501bb4c70;m;32;1;94;307,960,504,702,376;-20,943,951,023,932;586,169,385,370,035;556,860,916,101,533;556,860,916,101,533;0;2;2;0,95;0;2;1655;2;TRUE;0,277153615201457;980;3;1
455;ab4b9298c9a5df9a99d4e0f501bb4c70;m;32;1;95;209,401,274,266,371;-20,943,951,023,932;641,912,484,672,234;596,978,610,745,178;238,791,444,298,071;2;1;1;0,93;0,4;3;1740;2;FALSE;0,380149841308594;753;3;0
456;ab4b9298c9a5df9a99d4e0f501bb4c70;m;32;1;96;540,534,487,459,323;-20,943,951,023,932;73,185,006,431,467;512,295,045,020,269;512,295,045,020,269;0;1;1;0,7;0;2;1618;1;TRUE;0,370786516853933;594;3;1
457;ab4b9298c9a5df9a99d4e0f501bb4c70;m;32;1;97;244,837,387,494,491;-20,943,951,023,932;704,491,211,494,201;669,266,650,919,491;669,266,650,919,491;0;1;1;0,95;0;2;1617;2;FALSE;0,194756582881627;822;3;0
458;ab4b9298c9a5df9a99d4e0f501bb4c70;m;32;1;98;0,768184521353864;20,943,951,023,932;461,371,482,529,805;438,302,908,403,315;262,981,745,041,989;1;1;1;0,95;0,6;3;1794;2;FALSE;0,294007547785727;616;3;0
459;ab4b9298c9a5df9a99d4e0f501bb4c70;m;32;1;99;148,846,221,828,275;-20,943,951,023,932;556,837,698,988,069;445,470,159,190,455;222,735,079,595,228;0;2;2;0,8;0;2;1509;2;TRUE;0,63670417699921;676;3;1
460;ab4b9298c9a5df9a99d4e0f501bb4c70;m;32;1;100;501,306,110,513,133;20,943,951,023,932;664,940,873,359,216;631,693,829,691,255;631,693,829,691,255;2;2;2;0,95;0,1;3;1525;1;FALSE;0,48314606741573;2222;3;0
461;ab4b9298c9a5df9a99d4e0f501bb4c70;m;32;1;101;261,941,171,154,561;20,943,951,023,932;59,838,464,371,717;418,869,250,602,019;209,434,625,301,009;0;2;2;0,7;0;2;1494;2;TRUE;0,782771592729547;1889;3;1
462;ab4b9298c9a5df9a99d4e0f501bb4c70;m;32;1;102;0,750406920933895;20,943,951,023,932;426,428,881,997,712;396,578,860,257,872;237,947,316,154,723;0;2;2;0,93;0;2;1818;2;TRUE;0,612359550561798;2144;3;1
463;ab4b9298c9a5df9a99d4e0f501bb4c70;m;32;1;103;210,078,714,345,506;-20,943,951,023,932;549,285,425,831,388;510,835,446,023,191;102,167,089,204,638;0;2;2;0,93;0;2;1770;2;TRUE;0,640449438202247;2006;3;1
464;ab4b9298c9a5df9a99d4e0f501bb4c70;m;32;1;104;242,453,936,825,788;20,943,951,023,932;557,773,678,318,344;446,218,942,654,675;267,731,365,592,805;1;2;2;0,8;0,6;3;1686;2;TRUE;0,265917660145277;2572;3;1
465;ab4b9298c9a5df9a99d4e0f501bb4c70;m;32;1;105;24,112,955,464,943;-20,943,951,023,932;635,940,420,161,657;604,143,399,153,574;302,071,699,576,787;0;2;2;0,95;0;2;1653;2;TRUE;0,297752808988764;2396;3;1
466;ab4b9298c9a5df9a99d4e0f501bb4c70;m;32;1;106;265,639,219,550,104;-20,943,951,023,932;39,134,655,137,831;363,952,292,781,828;218,371,375,669,097;0;1;1;0,93;0;2;1992;1;TRUE;0,232209752114971;1241;3;1
467;ab4b9298c9a5df9a99d4e0f501bb4c70;m;32;1;107;0,353254011294322;-20,943,951,023,932;447,202,655,640,002;424,842,522,858,002;849,685,045,716,003;0;2;2;0,95;0;2;1750;1;FALSE;0,219101123595506;1434;3;0
468;ab4b9298c9a5df9a99d4e0f501bb4c70;m;32;1;108;176,396,667,355,454;20,943,951,023,932;632,927,587,702,876;569,634,828,932,588;284,817,414,466,294;1;1;1;0,9;0,5;3;1647;1;TRUE;0,337078651685393;2113;3;1
469;ab4b9298c9a5df9a99d4e0f501bb4c70;m;32;1;109;52,577,858,699,655;-20,943,951,023,932;545,586,487,629,838;518,307,163,248,346;155,492,148,974,504;0;1;1;0,95;0;2;2247;1;TRUE;0,269662921348315;830;3;1
470;ab4b9298c9a5df9a99d4e0f501bb4c70;m;32;1;110;456,244,252,977,105;20,943,951,023,932;584,112,031,076,878;467,289,624,861,502;467,289,624,861,502;1;1;1;0,8;0,1;3;2004;1;TRUE;0,323970066027695;733;3;1
471;ab4b9298c9a5df9a99d4e0f501bb4c70;m;32;1;111;0,342479899599198;-20,943,951,023,932;505,391,166,552,494;47,001,378,489,382;94,002,756,978,764;1;1;1;0,93;0,2;3;1939;1;TRUE;0,312734110971515;867;3;1
472;ab4b9298c9a5df9a99d4e0f501bb4c70;m;32;1;112;108,560,921,571,682;-20,943,951,023,932;286,376,301,364,406;229,101,041,091,525;137,460,624,654,915;0;2;2;0,8;0;2;1804;2;TRUE;0,290262200859156;762;3;1
473;ab4b9298c9a5df9a99d4e0f501bb4c70;m;32;1;113;603,933,610,180,772;20,943,951,023,932;463,539,622,390,477;324,477,735,673,334;648,955,471,346,667;1;1;1;0,7;0,2;3;1681;1;TRUE;0,398876404494382;726;3;1
474;ab4b9298c9a5df9a99d4e0f501bb4c70;m;32;1;114;222,712,583,851,162;20,943,951,023,932;791,632,597,331,544;752,050,967,464,966;752,050,967,464,966;2;1;1;0,95;0,1;3;1830;2;FALSE;0,509363324454661;788;3;0
475;ab4b9298c9a5df9a99d4e0f501bb4c70;m;32;1;115;251,052,755,736,092;20,943,951,023,932;538,867,930,498,527;377,207,551,348,969;754,415,102,697,938;0;1;1;0,7;0;2;1566;1;TRUE;0,301498155915335;715;3;1
476;ab4b9298c9a5df9a99d4e0f501bb4c70;m;32;1;116;360,247,466,273,895;-20,943,951,023,932;839,791,690,864,185;587,854,183,604,929;352,712,510,162,958;2;1;1;0,7;0,6;3;1682;1;TRUE;0,329588043555785;932;3;1
477;ab4b9298c9a5df9a99d4e0f501bb4c70;m;32;1;117;299,017,992,767,219;20,943,951,023,932;59,215,269,147,003;414,506,884,029,021;414,506,884,029,021;0;2;2;0,7;0;2;1599;2;TRUE;0,370786516853933;761;3;1
478;ab4b9298c9a5df9a99d4e0f501bb4c70;m;32;1;118;571,505,775,827,831;20,943,951,023,932;747,354,739,587;69,503,990,781,591;208,511,972,344,773;0;2;2;0,93;0;2;1653;2;TRUE;0,60861428935876;991;3;1
479;ab4b9298c9a5df9a99d4e0f501bb4c70;m;32;1;119;0,650514449375433;-20,943,951,023,932;640,378,212,016,512;448,264,748,411,558;179,305,899,364,623;0;2;2;0,7;0;2;1580;2;TRUE;0,771535637673367;787;3;1
480;ab4b9298c9a5df9a99d4e0f501bb4c70;m;32;1;120;314,955,510,336,507;-20,943,951,023,932;587,866,677,386,004;546,716,009,968,984;218,686,403,987,593;0;1;1;0,93;0;2;1643;1;TRUE;0,305243502841907;3355;3;1
482;fef95de45d75c759d8dd50d4f5500790;f;23;1;2;38,704,245,861,577;20,943,951,023,932;624,474,259,576,474;499,579,407,661,179;24,978,970,383,059;0;1;1;0,8;0;2;2124;1;TRUE;0,716144004564607;2853;4;1
483;fef95de45d75c759d8dd50d4f5500790;f;23;1;3;626,227,573,100,603;-20,943,951,023,932;689,315,502,019,241;551,452,401,615,393;165,435,720,484,618;1;1;1;0,8;0,3;3;1990;2;FALSE;0,796593826808286;2955;4;0
484;fef95de45d75c759d8dd50d4f5500790;f;23;1;4;310,939,184,301,007;-20,943,951,023,932;7,263,227,837,945;690,006,644,604,775;27,600,265,784,191;2;2;2;0,95;0,4;3;4235;2;TRUE;0,469181703717521;1794;4;1
485;fef95de45d75c759d8dd50d4f5500790;f;23;1;5;518,609,644,177,682;-20,943,951,023,932;549,156,247,310,377;521,698,434,944,858;260,849,217,472,429;0;1;1;0,95;0;2;2085;1;TRUE;0,542147861437851;2843;4;1
486;fef95de45d75c759d8dd50d4f5500790;f;23;1;6;345,389,259,985,054;20,943,951,023,932;848,274,661,740,403;593,792,263,218,282;296,896,131,609,141;2;2;2;0,7;0,5;3;1914;2;TRUE;0,643177846844277;2430;4;1
487;fef95de45d75c759d8dd50d4f5500790;f;23;1;7;200,892,932,506,481;20,943,951,023,932;56,480,559,590,807;451,844,476,726,456;225,922,238,363,228;1;2;2;0,8;0,5;3;1859;2;TRUE;0,863947407583172;4832;4;1
488;fef95de45d75c759d8dd50d4f5500790;f;23;1;8;130,822,030,115,128;-20,943,951,023,932;465,101,238,652,375;432,544,151,946,709;432,544,151,946,709;0;1;1;0,93;0;2;3036;1;TRUE;0,29892739285244;1416;4;1
489;fef95de45d75c759d8dd50d4f5500790;f;23;1;9;157,297,901,348,833;20,943,951,023,932;545,575,724,344,847;518,296,938,127,604;310,978,162,876,563;2;1;1;0,95;0,6;3;2511;1;TRUE;0,340087719177932;1441;4;1
490;fef95de45d75c759d8dd50d4f5500790;f;23;1;10;411,678,868,998,312;20,943,951,023,932;585,563,666,972,079;468,450,933,577,664;281,070,560,146,598;1;1;1;0,8;0,6;3;1681;1;TRUE;0,508471199635709;2265;4;1
491;fef95de45d75c759d8dd50d4f5500790;f;23;1;11;514,473,114,082,747;20,943,951,023,932;574,580,036,688,368;534,359,434,120,183;213,743,773,648,073;0;1;1;0,93;0;2;1604;1;TRUE;0,708660340041257;2382;4;1
492;fef95de45d75c759d8dd50d4f5500790;f;23;1;12;0,195551179797944;-20,943,951,023,932;590,772,929,940,238;531,695,636,946,214;265,847,818,473,107;2;2;2;0,9;0,5;3;1524;2;TRUE;0,495374700996313;4246;4;1
493;fef95de45d75c759d8dd50d4f5500790;f;23;1;13;470,318,245,867,516;-20,943,951,023,932;745,786,759,032,142;596,629,407,225,714;357,977,644,335,428;0;2;2;0,8;0;2;1632;2;TRUE;0,52530953053678;2367;4;1
494;fef95de45d75c759d8dd50d4f5500790;f;23;1;14;245,740,258,097,285;20,943,951,023,932;639,999,807,186,837;607,999,816,827,495;182,399,945,048,249;0;2;2;0,95;0;2;1403;2;TRUE;0,688080176878511;3201;4;1
495;fef95de45d75c759d8dd50d4f5500790;f;23;1;15;133,815,894,407,879;20,943,951,023,932;871,317,836,996,316;697,054,269,597,053;139,410,853,919,411;1;1;1;0,8;0,2;3;2812;1;TRUE;0,579566441225202;3529;4;1
496;fef95de45d75c759d8dd50d4f5500790;f;23;1;16;128,672,150,723,722;20,943,951,023,932;684,239,580,794,997;615,815,622,715,497;123,163,124,543,099;0;2;2;0,9;0;2;1215;2;TRUE;0,762917165006145;1642;4;1
497;fef95de45d75c759d8dd50d4f5500790;f;23;1;17;478,569,432,760,318;20,943,951,023,932;525,469,446,957,087;472,922,502,261,379;141,876,750,678,414;2;2;2;0,9;0,3;3;4324;2;TRUE;0,454214288947288;3004;4;1
498;fef95de45d75c759d8dd50d4f5500790;f;23;1;18;626,907,750,290,577;20,943,951,023,932;32,253,801,912,228;306,411,118,166,166;612,822,236,332,332;0;1;1;0,95;0;2;2941;2;FALSE;0,323249388276861;1692;4;0
499;fef95de45d75c759d8dd50d4f5500790;f;23;1;19;319,755,187,234,616;-20,943,951,023,932;2,458,713,984,122;228,660,400,523,346;228,660,400,523,346;2;2;2;0,93;0,1;3;1973;1;FALSE;0,355055219671699;4981;4;0
500;fef95de45d75c759d8dd50d4f5500790;f;23;1;20;374,233,139,507,557;-20,943,951,023,932;384,517,602,490,409;365,291,722,365,889;146,116,688,946,356;0;1;1;0,95;0;2;1890;1;TRUE;0,424279545130355;2726;4;1
501;fef95de45d75c759d8dd50d4f5500790;f;23;1;21;240,401,151,843,059;20,943,951,023,932;584,926,265,299,006;543,981,426,728,076;21,759,257,069,123;2;1;1;0,93;0,4;3;2781;2;FALSE;0,536535027321805;2636;4;0
502;fef95de45d75c759d8dd50d4f5500790;f;23;1;22;582,162,083,799,141;-20,943,951,023,932;400,825,086,926,278;280,577,560,848,395;140,288,780,424,197;0;1;1;0,7;0;2;1843;1;TRUE;0,52530953053678;3224;4;1
503;fef95de45d75c759d8dd50d4f5500790;f;23;1;23;493,848,038,674,935;20,943,951,023,932;825,281,708,120,396;767,511,988,551,968;383,755,994,275,984;2;1;1;0,93;0,5;3;1849;1;TRUE;0,332604054654582;3190;4;1
504;fef95de45d75c759d8dd50d4f5500790;f;23;1;24;220,495,685,448,909;-20,943,951,023,932;739,390,186,721,383;702,420,677,385,314;421,452,406,431,188;2;2;2;0,95;0,6;3;2927;1;FALSE;0,132414871387267;2195;4;0
505;fef95de45d75c759d8dd50d4f5500790;f;23;1;25;259,213,820,921,147;-20,943,951,023,932;385,971,116,276,144;270,179,781,393,301;540,359,562,786,602;0;1;1;0,7;0;2;1687;1;TRUE;0,304540226968487;3796;4;1
506;fef95de45d75c759d8dd50d4f5500790;f;23;1;26;0,684029857954909;20,943,951,023,932;741,013,688,360,317;666,912,319,524,285;400,147,391,714,571;1;2;2;0,9;0,6;3;1625;2;TRUE;0,658145347338044;3502;4;1
507;fef95de45d75c759d8dd50d4f5500790;f;23;1;27;362,593,460,006,255;20,943,951,023,932;63,028,531,419,375;586,165,342,200,187;175,849,602,660,056;2;2;2;0,93;0,3;3;2402;2;TRUE;0,431763209653704;3192;4;1
508;fef95de45d75c759d8dd50d4f5500790;f;23;1;28;31,872,731,381,173;20,943,951,023,932;510,037,070,249,861;357,025,949,174,903;142,810,379,669,961;2;2;2;0,7;0,4;3;1521;2;TRUE;0,759175418468004;1969;4;1
509;fef95de45d75c759d8dd50d4f5500790;f;23;1;29;143,505,867,736,294;20,943,951,023,932;333,671,260,936,187;233,569,882,655,331;700,709,647,965,994;0;2;2;0,7;0;2;1520;2;TRUE;0,740466085712561;8160;4;1
510;fef95de45d75c759d8dd50d4f5500790;f;23;1;30;334,393,208,349,307;20,943,951,023,932;626,408,455,058,919;563,767,609,553,027;563,767,609,553,027;0;2;2;0,9;0;2;1927;2;TRUE;0,654403429352835;2694;4;1
511;fef95de45d75c759d8dd50d4f5500790;f;23;1;31;214,630,314,897,808;-20,943,951,023,932;706,874,122,364,018;657,392,933,798,536;262,957,173,519,415;2;2;2;0,93;0,4;3;1526;2;TRUE;0,596404686402739;2281;4;1
512;fef95de45d75c759d8dd50d4f5500790;f;23;1;32;540,443,235,286,978;20,943,951,023,932;36,334,294,820,366;254,340,063,742,562;508,680,127,485,124;0;2;2;0,7;0;2;1683;2;TRUE;0,813432243432892;1952;4;1
513;fef95de45d75c759d8dd50d4f5500790;f;23;1;33;270,941,236,517,707;20,943,951,023,932;609,476,518,205,371;579,002,692,295,102;289,501,346,147,551;1;2;2;0,95;0,5;3;1564;2;TRUE;0,695563841401861;1786;4;1
514;fef95de45d75c759d8dd50d4f5500790;f;23;1;34;287,918,227,678,567;20,943,951,023,932;79,048,855,460,923;553,341,988,226,461;553,341,988,226,461;2;1;1;0,7;0,1;3;899;1;TRUE;0,658145347338044;1718;4;1
515;fef95de45d75c759d8dd50d4f5500790;f;23;1;35;43,751,272,114,035;20,943,951,023,932;792,113,525,878,531;712,902,173,290,678;712,902,173,290,678;2;1;1;0,9;0,1;3;1087;1;TRUE;0,616984849565485;2701;4;1
516;fef95de45d75c759d8dd50d4f5500790;f;23;1;36;219,331,188,765,599;-20,943,951,023,932;555,978,772,292,502;500,380,895,063,252;10,007,617,901,265;2;1;1;0,9;0,2;3;1706;2;FALSE;0,205381029107597;2805;4;0
517;fef95de45d75c759d8dd50d4f5500790;f;23;1;37;168,777,264,060,387;-20,943,951,023,932;286,862,427,092,691;272,519,305,738,056;272,519,305,738,056;0;1;1;0,95;0;2;1885;2;FALSE;0,396215545997191;1837;4;0
518;fef95de45d75c759d8dd50d4f5500790;f;23;1;38;0,237973300017222;-20,943,951,023,932;398,777,174,568,038;358,899,457,111,234;358,899,457,111,234;0;1;1;0,9;0;2;1808;2;FALSE;0,37189355057277;3252;4;0
519;fef95de45d75c759d8dd50d4f5500790;f;23;1;39;334,790,168,726,913;20,943,951,023,932;316,678,988,558,741;221,675,291,991,119;665,025,875,973,356;1;2;2;0,7;0,3;3;1268;2;TRUE;0,69930575938707;3784;4;1
520;fef95de45d75c759d8dd50d4f5500790;f;23;1;40;405,354,155,470,114;-20,943,951,023,932;595,324,155,441,422;53,579,173,989,728;214,316,695,958,912;0;2;2;0,9;0;2;2846;1;FALSE;0,429892207799333;4325;4;0
521;fef95de45d75c759d8dd50d4f5500790;f;23;1;41;0,146472352722925;20,943,951,023,932;583,383,669,813,205;466,706,935,850,564;140,012,080,755,169;0;1;1;0,8;0;2;1512;1;TRUE;0,598275773980644;2195;4;1
522;fef95de45d75c759d8dd50d4f5500790;f;23;1;42;14,957,957,860,323;-20,943,951,023,932;595,864,304,076,947;476,691,443,261,558;953,382,886,523,115;1;2;2;0,8;0,2;3;1701;2;TRUE;0,776013663645541;3025;4;1
523;fef95de45d75c759d8dd50d4f5500790;f;23;1;43;371,346,410,469,668;-20,943,951,023,932;791,911,993,584,232;736,478,154,033,336;736,478,154,033,336;2;1;1;0,93;0,1;3;1085;1;TRUE;0,755433500482795;3256;4;1
524;fef95de45d75c759d8dd50d4f5500790;f;23;1;44;212,429,737,341,823;20,943,951,023,932;549,329,311,338,504;384,530,517,936,953;115,359,155,381,086;0;1;1;0,7;0;2;1407;1;TRUE;0,830270660057497;2619;4;1
525;fef95de45d75c759d8dd50d4f5500790;f;23;1;45;529,155,169,123,558;-20,943,951,023,932;411,207,584,557,633;287,845,309,190,343;575,690,618,380,686;1;2;2;0,7;0,2;3;1573;2;TRUE;0,768529999122191;621;4;1
526;fef95de45d75c759d8dd50d4f5500790;f;23;1;46;402,576,400,987,662;-20,943,951,023,932;73,393,401,342,793;587,147,210,742,344;117,429,442,148,469;0;1;1;0,8;0;2;993;1;TRUE;0,716144004564607;2329;4;1
527;fef95de45d75c759d8dd50d4f5500790;f;23;1;47;0,267665997537196;-20,943,951,023,932;791,497,764,874,982;712,347,988,387,484;356,173,994,193,742;0;1;1;0,9;0;2;1672;2;FALSE;0,798464914386192;2783;4;0
528;fef95de45d75c759d8dd50d4f5500790;f;23;1;48;32,995,618,450,315;20,943,951,023,932;573,709,242,477,849;401,596,469,734,494;401,596,469,734,494;0;1;1;0,7;0;2;880;1;TRUE;0,560857108469759;874;4;1
529;fef95de45d75c759d8dd50d4f5500790;f;23;1;49;191,674,604,152,884;20,943,951,023,932;270,450,422,412,776;251,518,892,843,881;100,607,557,137,553;0;2;2;0,93;0;2;2869;2;TRUE;0,244670525025786;2569;4;1
530;fef95de45d75c759d8dd50d4f5500790;f;23;1;50;241,098,906,152,738;-20,943,951,023,932;628,401,128,363,381;596,981,071,945,212;119,396,214,389,042;0;2;2;0,95;0;2;1757;2;TRUE;0,523438528682409;4640;4;1
531;fef95de45d75c759d8dd50d4f5500790;f;23;1;51;544,898,715,514,349;-20,943,951,023,932;783,078,409,073,525;728,262,920,438,378;364,131,460,219,189;1;2;2;0,93;0,5;3;1041;2;TRUE;0,502858365519663;2551;4;1
532;fef95de45d75c759d8dd50d4f5500790;f;23;1;52;467,789,237,097,629;20,943,951,023,932;456,436,563,092,225;319,505,594,164,558;159,752,797,082,279;0;2;2;0,7;0;2;1219;2;TRUE;0,703047505925211;1079;4;1
533;fef95de45d75c759d8dd50d4f5500790;f;23;1;53;424,782,247,732,662;20,943,951,023,932;607,220,803,218,855;425,054,562,253,198;170,021,824,901,279;0;1;1;0,7;0;2;1386;1;TRUE;0,609501185042135;2220;4;1
534;fef95de45d75c759d8dd50d4f5500790;f;23;1;54;162,727,515,446,587;20,943,951,023,932;504,261,139,095,837;453,835,025,186,253;907,670,050,372,507;2;2;2;0,9;0,2;3;1229;2;TRUE;0,276476227835323;1186;4;1
535;fef95de45d75c759d8dd50d4f5500790;f;23;1;55;364,627,663,339,113;-20,943,951,023,932;757,449,659,502,672;53,021,476,165,187;212,085,904,660,748;1;1;1;0,7;0,4;3;1134;1;TRUE;0,800335744793495;3291;4;1
536;fef95de45d75c759d8dd50d4f5500790;f;23;1;56;511,525,799,694,289;-20,943,951,023,932;454,302,942,483,902;408,872,648,235,512;122,661,794,470,654;0;1;1;0,9;0;2;1494;1;TRUE;0,280218060096998;2606;4;1
537;fef95de45d75c759d8dd50d4f5500790;f;23;1;57;110,059,970,962,732;-20,943,951,023,932;531,074,678,331,499;477,967,210,498,349;143,390,163,149,505;1;1;1;0,9;0,3;3;1295;2;FALSE;0,358797051933374;2385;4;0
538;fef95de45d75c759d8dd50d4f5500790;f;23;1;58;0,884632950294686;20,943,951,023,932;400,850,434,007,242;280,595,303,805,069;112,238,121,522,028;0;2;2;0,7;0;2;1190;2;TRUE;0,598275773980644;3277;4;1
539;fef95de45d75c759d8dd50d4f5500790;f;23;1;59;581,256,185,908,828;20,943,951,023,932;404,882,462,780,791;384,638,339,641,751;115,391,501,892,525;0;1;1;0,95;0;2;2049;1;TRUE;0,29892739285244;2079;4;1
540;fef95de45d75c759d8dd50d4f5500790;f;23;1;60;0,520737138242323;20,943,951,023,932;63,188,780,124,306;600,293,411,180,907;600,293,411,180,907;1;2;2;0,95;0,1;3;1082;2;TRUE;0,349442385555653;1331;4;1
541;fef95de45d75c759d8dd50d4f5500790;f;23;1;61;38,790,803,670,464;-20,943,951,023,932;635,192,850,043,037;508,154,280,034,429;203,261,712,013,772;0;1;1;0,8;0;2;907;1;TRUE;0,463569041048543;4511;4;1
542;fef95de45d75c759d8dd50d4f5500790;f;23;1;62;124,862,116,206,113;20,943,951,023,932;494,756,613,893,864;346,329,629,725,705;103,898,888,917,711;2;1;1;0,7;0,3;3;1287;1;TRUE;0,500987449388825;3023;4;1
543;fef95de45d75c759d8dd50d4f5500790;f;23;1;63;57,052,316,216,393;20,943,951,023,932;588,604,674,995,029;559,174,441,245,278;559,174,441,245,278;0;2;2;0,95;0;2;1533;2;TRUE;0,368151632587561;1788;4;1
544;fef95de45d75c759d8dd50d4f5500790;f;23;1;64;351,826,268,634,262;20,943,951,023,932;55,585,955,184,102;444,687,641,472,816;889,375,282,945,633;0;2;2;0,8;0;2;1160;2;TRUE;0,676854508646418;3153;4;1
545;fef95de45d75c759d8dd50d4f5500790;f;23;1;65;0,704636644222879;20,943,951,023,932;23,373,128,897,347;217,370,098,745,327;652,110,296,235,982;0;1;1;0,93;0;2;3854;2;FALSE;0,0987382095851255;2682;4;0
546;fef95de45d75c759d8dd50d4f5500790;f;23;1;66;517,790,880,056,937;20,943,951,023,932;682,327,404,312,453;634,564,486,010,582;126,912,897,202,116;0;2;2;0,93;0;2;1099;1;FALSE;0,456085205078125;3195;4;0
547;fef95de45d75c759d8dd50d4f5500790;f;23;1;67;307,768,308,461,224;-20,943,951,023,932;569,673,154,616,888;455,738,523,693,511;273,443,114,216,106;0;1;1;0,8;0;2;1208;1;TRUE;0,673112762108278;1162;4;1
548;fef95de45d75c759d8dd50d4f5500790;f;23;1;68;118,865,109,948,251;20,943,951,023,932;316,304,267,994,948;253,043,414,395,958;101,217,365,758,383;2;1;1;0,8;0,4;3;2754;2;FALSE;0,437376043769751;1387;4;0
549;fef95de45d75c759d8dd50d4f5500790;f;23;1;69;387,578,427,314,014;-20,943,951,023,932;651,060,536,720,603;455,742,375,704,422;455,742,375,704,422;2;2;2;0,7;0,1;3;1127;2;TRUE;0,703047505925211;3055;4;1
550;fef95de45d75c759d8dd50d4f5500790;f;23;1;70;0,155105009635294;20,943,951,023,932;535,422,225,747,982;374,795,558,023,587;224,877,334,814,152;1;2;2;0,7;0,6;3;1508;2;TRUE;0,349442385555653;1980;4;1
551;fef95de45d75c759d8dd50d4f5500790;f;23;1;71;52,172,672,187,533;20,943,951,023,932;706,513,706,908,144;565,210,965,526,515;565,210,965,526,515;1;1;1;0,8;0,1;3;1704;1;TRUE;0,60575935278046;2678;4;1
552;fef95de45d75c759d8dd50d4f5500790;f;23;1;72;523,031,298,156,239;20,943,951,023,932;51,352,679,624,422;477,579,920,507,124;955,159,841,014,249;2;1;1;0,93;0,2;3;2816;1;TRUE;0,540276945307014;1217;4;1
553;fef95de45d75c759d8dd50d4f5500790;f;23;1;73;125,817,161,004,166;20,943,951,023,932;498,477,663,574,521;398,782,130,859,617;398,782,130,859,617;0;1;1;0,8;0;2;2310;2;FALSE;0,398086547851562;1698;4;0
554;fef95de45d75c759d8dd50d4f5500790;f;23;1;74;372,127,957,835,863;-20,943,951,023,932;538,854,435,761,419;431,083,548,609,135;215,541,774,304,568;0;2;2;0,8;0;2;939;2;TRUE;0,738595169581724;1251;4;1
555;fef95de45d75c759d8dd50d4f5500790;f;23;1;75;332,014,809,973,602;-20,943,951,023,932;265,390,129,523,173;212,312,103,618,538;636,936,310,855,614;1;2;2;0,8;0,3;3;2103;1;FALSE;0,635694182320927;1384;4;0
556;fef95de45d75c759d8dd50d4f5500790;f;23;1;76;276,189,448,448,802;-20,943,951,023,932;334,901,718,539,375;2,679,213,748,315;1,607,528,248,989;1;2;2;0,8;0,6;3;1662;2;TRUE;0,205381029107597;1579;4;1
557;fef95de45d75c759d8dd50d4f5500790;f;23;1;77;383,795,682,803,465;20,943,951,023,932;389,471,435,901,595;311,577,148,721,276;311,577,148,721,276;2;2;2;0,8;0,1;3;1640;2;TRUE;0,383119047357795;3719;4;1
558;fef95de45d75c759d8dd50d4f5500790;f;23;1;78;617,028,786,572,356;-20,943,951,023,932;513,236,401,204,986;487,574,581,144,736;292,544,748,686,842;0;2;2;0,95;0;2;921;2;TRUE;0,431763209653704;5176;4;1
559;fef95de45d75c759d8dd50d4f5500790;f;23;1;79;0,229334547966307;20,943,951,023,932;51,983,845,328,415;48,344,976,155,426;290,069,856,932,556;0;1;1;0,93;0;2;1831;2;FALSE;0,384990049212166;2376;4;0
560;fef95de45d75c759d8dd50d4f5500790;f;23;1;80;325,303,071,782,153;-20,943,951,023,932;34,563,770,789,228;328,355,822,497,666;985,067,467,492,998;2;1;1;0,95;0,3;3;986;1;TRUE;0,519696782144268;1765;4;1
561;fef95de45d75c759d8dd50d4f5500790;f;23;1;81;316,768,392,475,103;20,943,951,023,932;498,555,354,483,755;463,656,479,669,893;278,193,887,801,936;1;2;2;0,93;0,6;3;1733;2;TRUE;0,532793280783664;1410;4;1
562;fef95de45d75c759d8dd50d4f5500790;f;23;1;82;523,940,899,771,294;20,943,951,023,932;530,500,094,532,828;477,450,085,079,546;238,725,042,539,773;2;1;1;0,9;0,5;3;1695;1;TRUE;0,678725596224324;1142;4;1
563;fef95de45d75c759d8dd50d4f5500790;f;23;1;83;613,444,051,870,613;20,943,951,023,932;294,150,027,521,184;273,559,525,594,701;164,135,715,356,821;2;1;1;0,93;0,6;3;1909;2;FALSE;0,375635382834445;1341;4;0
564;fef95de45d75c759d8dd50d4f5500790;f;23;1;84;623,333,901,451,627;-20,943,951,023,932;432,806,863,800,316;4,111,665,206,103;16,446,660,824,412;2;1;1;0,95;0,4;3;2477;1;TRUE;0,650661768538229;901;4;1
565;fef95de45d75c759d8dd50d4f5500790;f;23;1;85;122,483,616,928,773;20,943,951,023,932;71,077,941,556,584;639,701,474,009,256;383,820,884,405,554;1;1;1;0,9;0,6;3;3373;2;FALSE;0,463569041048543;2137;4;0
566;fef95de45d75c759d8dd50d4f5500790;f;23;1;86;550,488,709,892,633;20,943,951,023,932;687,246,859,481,449;549,797,487,585,159;219,918,995,034,064;0;2;2;0,8;0;2;1363;2;TRUE;0,646919764829486;1651;4;1
567;fef95de45d75c759d8dd50d4f5500790;f;23;1;87;0,978264810628387;20,943,951,023,932;528,613,680,508,502;475,752,312,457,652;190,300,924,983,061;2;1;1;0,9;0,4;3;1774;2;FALSE;0,439246874177054;818;4;0
568;fef95de45d75c759d8dd50d4f5500790;f;23;1;88;530,340,061,284,095;20,943,951,023,932;631,573,163,636,854;587,363,042,182,274;352,417,825,309,364;0;2;2;0,93;0;2;2002;1;FALSE;0,18105899082141;1737;4;0
569;fef95de45d75c759d8dd50d4f5500790;f;23;1;89;53,531,823,392,293;-20,943,951,023,932;642,039,299,200,177;449,427,509,440,124;269,656,505,664,074;0;2;2;0,7;0;2;1094;2;TRUE;0,532793280783664;3593;4;1
570;fef95de45d75c759d8dd50d4f5500790;f;23;1;90;196,429,830,994,645;-20,943,951,023,932;684,021,638,308,895;615,619,474,478,006;615,619,474,478,006;1;2;2;0,9;0,1;3;3229;1;FALSE;0,639436100306136;759;4;0
571;fef95de45d75c759d8dd50d4f5500790;f;23;1;91;552,964,247,332,611;20,943,951,023,932;808,076,452,043,999;751,511,100,400,919;375,755,550,200,459;0;1;1;0,93;0;2;1060;1;TRUE;0,336345886916257;1464;4;1
572;fef95de45d75c759d8dd50d4f5500790;f;23;1;92;296,743,939,998,997;-20,943,951,023,932;434,703,286,481,672;412,968,122,157,589;123,890,436,647,277;1;2;2;0,95;0,3;3;1706;1;FALSE;0,315765723753511;443;4;0
573;fef95de45d75c759d8dd50d4f5500790;f;23;1;93;105,350,629,310,712;-20,943,951,023,932;568,189,559,281,918;397,732,691,497,342;397,732,691,497,342;0;2;2;0,7;0;2;1037;2;TRUE;0,755433500482795;3193;4;1
574;fef95de45d75c759d8dd50d4f5500790;f;23;1;94;16,038,548,181,198;-20,943,951,023,932;354,038,128,762,951;247,826,690,134,066;495,653,380,268,132;2;1;1;0,7;0,2;3;1130;1;TRUE;0,688080176878511;2047;4;1
575;fef95de45d75c759d8dd50d4f5500790;f;23;1;95;142,775,099,884,472;-20,943,951,023,932;618,322,504,508,745;575,039,929,193,133;287,519,964,596,566;0;2;2;0,93;0;2;1054;2;TRUE;0,736724167727352;1776;4;1
576;fef95de45d75c759d8dd50d4f5500790;f;23;1;96;618,515,422,603,777;-20,943,951,023,932;619,845,814,503,855;576,456,607,488,585;115,291,321,497,717;0;1;1;0,93;0;2;1182;2;FALSE;0,272734395573648;1143;4;0
577;fef95de45d75c759d8dd50d4f5500790;f;23;1;97;609,480,686,861,186;20,943,951,023,932;508,964,610,553,457;473,337,087,814,715;142,001,126,344,415;1;1;1;0,93;0,3;3;1680;2;FALSE;0,272734395573648;904;4;0
578;fef95de45d75c759d8dd50d4f5500790;f;23;1;98;115,105,384,230,888;-20,943,951,023,932;643,367,964,654,549;514,694,371,723,639;25,734,718,586,182;2;1;1;0,8;0,5;3;1267;1;TRUE;0,429892207799333;503;4;1
579;fef95de45d75c759d8dd50d4f5500790;f;23;1;99;277,007,398,541,508;20,943,951,023,932;860,442,353,745,109;817,420,236,057,854;163,484,047,211,571;2;1;1;0,95;0,2;3;1870;2;FALSE;0,398086547851562;525;4;0
580;fef95de45d75c759d8dd50d4f5500790;f;23;1;100;494,431,944,042,007;20,943,951,023,932;331,721,227,431,129;30,850,074,151,095;30,850,074,151,095;0;2;2;0,93;0;2;2686;1;FALSE;0,300798308983278;815;4;0
581;fef95de45d75c759d8dd50d4f5500790;f;23;1;101;559,888,524,391,517;-20,943,951,023,932;636,937,813,285,525;605,090,922,621,249;302,545,461,310,624;1;1;1;0,95;0,5;3;1083;2;FALSE;0,336345886916257;591;4;0
582;fef95de45d75c759d8dd50d4f5500790;f;23;1;102;329,995,338,943,821;20,943,951,023,932;324,312,974,259,825;301,611,066,061,637;904,833,198,184,912;0;2;2;0,93;0;2;1908;2;TRUE;0,686209260747674;2188;4;1
583;fef95de45d75c759d8dd50d4f5500790;f;23;1;103;527,254,778,189,564;20,943,951,023,932;714,444,640,702,466;643,000,176,632,219;257,200,070,652,888;0;1;1;0,9;0;2;877;1;TRUE;0,26150881306509;472;4;1
584;fef95de45d75c759d8dd50d4f5500790;f;23;1;104;385,692,405,765,753;20,943,951,023,932;361,347,102,681,842;25,294,297,187,729;151,765,783,126,374;2;1;1;0,7;0,6;3;820;1;TRUE;0,603888522373157;633;4;1
585;fef95de45d75c759d8dd50d4f5500790;f;23;1;105;160,939,607,705,604;-20,943,951,023,932;579,958,416,799,126;521,962,575,119,214;104,392,515,023,843;0;1;1;0,9;0;2;832;1;TRUE;0,781626497761587;809;4;1
586;fef95de45d75c759d8dd50d4f5500790;f;23;1;106;250,527,325,348,098;20,943,951,023,932;703,491,573,091,961;654,247,162,975,523;130,849,432,595,105;2;2;2;0,93;0,2;3;1226;2;TRUE;0,532793280783664;386;4;1
587;fef95de45d75c759d8dd50d4f5500790;f;23;1;107;331,540,945,056,485;-20,943,951,023,932;530,117,553,233,569;477,105,797,910,212;238,552,898,955,106;0;2;2;0,9;0;2;1634;2;TRUE;0,478536370095242;1996;4;1
588;fef95de45d75c759d8dd50d4f5500790;f;23;1;108;0,944139509279808;-20,943,951,023,932;432,881,851,643,079;346,305,481,314,464;103,891,644,394,339;0;2;2;0,8;0;2;1037;2;TRUE;0,134285830379872;3873;4;1
589;fef95de45d75c759d8dd50d4f5500790;f;23;1;109;393,180,543,890,892;-20,943,951,023,932;505,782,360,377,929;480,493,242,359,033;240,246,621,179,516;0;2;2;0,95;0;2;1057;1;FALSE;0,341958721032303;3103;4;0
590;fef95de45d75c759d8dd50d4f5500790;f;23;1;110;591,145,128,140,006;20,943,951,023,932;637,500,771,515,561;605,625,732,939,783;36,337,543,976,387;0;1;1;0,95;0;2;1081;1;TRUE;0,40744112850575;3906;4;1
591;fef95de45d75c759d8dd50d4f5500790;f;23;1;111;374,993,340,756,839;-20,943,951,023,932;392,205,582,570,866;274,543,907,799,607;137,271,953,899,803;1;1;1;0,7;0,5;3;2180;1;TRUE;0,755433500482795;458;4;1
592;fef95de45d75c759d8dd50d4f5500790;f;23;1;112;37,762,240,234,042;-20,943,951,023,932;484,432,824,100,635;435,989,541,690,572;261,593,725,014,343;0;2;2;0,9;0;2;1278;2;TRUE;0,658145347338044;400;4;1
593;fef95de45d75c759d8dd50d4f5500790;f;23;1;113;508,511,051,795,898;-20,943,951,023,932;682,937,697,161,891;648,790,812,303,796;259,516,324,921,518;0;2;2;0,95;0;2;874;2;TRUE;0,45234337281645;516;4;1
594;fef95de45d75c759d8dd50d4f5500790;f;23;1;114;537,977,549,646,939;-20,943,951,023,932;574,300,762,002,495;516,870,685,802,246;310,122,411,481,347;0;1;1;0,9;0;2;1795;1;TRUE;0,48040728622608;511;4;1
595;fef95de45d75c759d8dd50d4f5500790;f;23;1;115;142,194,600,304,981;-20,943,951,023,932;390,733,111,531,787;31,258,648,922,543;31,258,648,922,543;0;2;2;0,8;0;2;1200;2;TRUE;0,676854508646418;1030;4;1
596;fef95de45d75c759d8dd50d4f5500790;f;23;1;116;0,761623140456084;20,943,951,023,932;833,193,579,282,082;666,554,863,425,666;266,621,945,370,266;1;2;2;0,8;0,4;3;935;2;TRUE;0,792852080270146;477;4;1
597;fef95de45d75c759d8dd50d4f5500790;f;23;1;117;140,169,554,599,609;-20,943,951,023,932;552,583,931,164,542;497,325,538,048,088;198,930,215,219,235;2;2;2;0,9;0,4;3;1527;2;TRUE;0,61137227262004;513;4;1
598;fef95de45d75c759d8dd50d4f5500790;f;23;1;118;257,799,821,948,045;-20,943,951,023,932;564,423,666,759,953;536,202,483,421,955;107,240,496,684,391;1;2;2;0,95;0,2;3;1047;2;TRUE;0,555244360077247;593;4;1
599;fef95de45d75c759d8dd50d4f5500790;f;23;1;119;229,956,468,320,718;-20,943,951,023,932;520,670,144,757,426;364,469,101,330,198;218,681,460,798,119;0;1;1;0,7;0;2;861;1;TRUE;0,753562584351958;503;4;1
601;884a46b18ffa19aa3ba43c83768ec186;f;29;1;1;348,906,179,986,521;-20,943,951,023,932;456,503,392,262,894;365,202,713,810,315;146,081,085,524,126;0;1;1;0,8;0;2;5419;2;FALSE;0,309523937748928;1161;5;0
602;884a46b18ffa19aa3ba43c83768ec186;f;29;1;2;0,435874180193979;-20,943,951,023,932;69,505,950,057,953;556,047,600,463,624;22,241,904,018,545;1;1;1;0,8;0,4;3;5947;2;FALSE;0,824930078843061;830;5;0
603;884a46b18ffa19aa3ba43c83768ec186;f;29;1;3;616,145,949,454,551;-20,943,951,023,932;829,809,446,970,205;788,318,974,621,694;788,318,974,621,694;2;1;1;0,95;0,1;3;2504;1;TRUE;0,850140141505821;1759;5;1
604;884a46b18ffa19aa3ba43c83768ec186;f;29;1;4;497,718,357,425,801;-20,943,951,023,932;616,363,878,206,019;585,545,684,295,718;117,109,136,859,144;0;1;1;0,95;0;2;1994;1;TRUE;1;1554;5;1
605;884a46b18ffa19aa3ba43c83768ec186;f;29;1;5;346,551,003,317,259;20,943,951,023,932;445,985,174,270,393;414,766,212,071,466;248,859,727,242,879;2;2;2;0,93;0,6;3;1799;1;FALSE;0,841736737419577;1123;5;0
606;884a46b18ffa19aa3ba43c83768ec186;f;29;1;6;621,632,216,676,828;20,943,951,023,932;586,502,552,811,307;469,202,042,249,045;938,404,084,498,091;2;1;1;0,8;0,2;3;1830;1;TRUE;0,838935852050781;3333;5;1
607;884a46b18ffa19aa3ba43c83768ec186;f;29;1;7;0,247832292778793;20,943,951,023,932;42,222,190,918,428;392,666,375,541,381;19,633,318,777,069;1;2;2;0,93;0,5;3;1959;1;FALSE;0,897759381462546;3501;5;0
608;884a46b18ffa19aa3ba43c83768ec186;f;29;1;8;598,230,582,383,491;20,943,951,023,932;540,285,347,599,919;513,271,080,219,923;256,635,540,109,961;0;2;2;0,95;0;2;1749;2;TRUE;0,833333333333333;837;5;1
609;884a46b18ffa19aa3ba43c83768ec186;f;29;1;9;455,679,761,541,748;20,943,951,023,932;653,019,799,907,241;587,717,819,916,517;35,263,069,194,991;0;2;2;0,9;0;2;1200;1;FALSE;0,827731113807828;725;5;0
610;884a46b18ffa19aa3ba43c83768ec186;f;29;1;10;2,328,172,711,211;20,943,951,023,932;415,091,889,808,643;394,337,295,318,211;236,602,377,190,926;0;2;2;0,95;0;2;1316;2;TRUE;0,914566040039062;636;5;1
611;884a46b18ffa19aa3ba43c83768ec186;f;29;1;11;457,615,545,726,056;20,943,951,023,932;708,068,191,118,113;495,647,733,782,679;148,694,320,134,804;0;2;2;0,7;0;2;917;2;TRUE;0,920168109968597;2056;5;1
612;884a46b18ffa19aa3ba43c83768ec186;f;29;1;12;437,538,357,694,048;-20,943,951,023,932;451,293,576,564,242;406,164,218,907,818;406,164,218,907,818;0;1;1;0,9;0;2;1295;1;TRUE;0,939775953105852;4239;5;1
613;884a46b18ffa19aa3ba43c83768ec186;f;29;1;13;431,931,477,212,163;-20,943,951,023,932;619,015,985,398,299;495,212,788,318,639;495,212,788,318,639;2;1;1;0,8;0,1;3;2216;2;FALSE;0,21428575702742;1245;5;0
614;884a46b18ffa19aa3ba43c83768ec186;f;29;1;14;377,306,342,179,398;-20,943,951,023,932;854,418,722,953,702;683,534,978,362,962;410,120,987,017,777;0;2;2;0,8;0;2;1680;2;TRUE;0,824930078843061;1095;5;1
615;884a46b18ffa19aa3ba43c83768ec186;f;29;1;15;10,721,969,750,569;20,943,951,023,932;72,606,543,159,114;689,762,160,011,583;206,928,648,003,475;0;2;2;0,95;0;2;2641;2;TRUE;0,894958196901808;1226;5;1
616;884a46b18ffa19aa3ba43c83768ec186;f;29;1;16;184,757,789,401,821;-20,943,951,023,932;930,962,305,150,516;837,866,074,635,465;418,933,037,317,732;1;1;1;0,9;0,5;3;1907;1;TRUE;0,715686424105775;711;5;1
617;884a46b18ffa19aa3ba43c83768ec186;f;29;1;17;296,208,102,108,829;-20,943,951,023,932;74,129,812,183,767;689,407,253,309,033;20,682,217,599,271;0;2;2;0,93;0;2;1864;2;TRUE;0,816526824352788;843;5;1
618;884a46b18ffa19aa3ba43c83768ec186;f;29;1;18;223,019,029,039,451;-20,943,951,023,932;999,415,011,641,981;799,532,009,313,585;159,906,401,862,717;2;2;2;0,8;0,2;3;1746;2;TRUE;0,782913208007812;880;5;1
619;884a46b18ffa19aa3ba43c83768ec186;f;29;1;19;409,330,439,255,606;20,943,951,023,932;725,366,185,710,668;507,756,329,997,468;203,102,531,998,987;2;1;1;0,7;0,4;3;875;1;TRUE;0,827731113807828;875;5;1
620;884a46b18ffa19aa3ba43c83768ec186;f;29;1;20;472,348,530,183,104;20,943,951,023,932;567,289,083,934,246;453,831,267,147,396;226,915,633,573,698;2;2;2;0,8;0,5;3;1753;2;TRUE;0,900560266831342;7860;5;1
621;884a46b18ffa19aa3ba43c83768ec186;f;29;1;21;513,387,771,300,378;-20,943,951,023,932;642,010,192,310,465;513,608,153,848,372;308,164,892,309,023;0;1;1;0,8;0;2;1784;1;TRUE;0,822128894282322;657;5;1
622;884a46b18ffa19aa3ba43c83768ec186;f;29;1;22;625,375,080,006,647;20,943,951,023,932;811,197,893,457,882;648,958,314,766,306;324,479,157,383,153;0;2;2;0,8;0;2;3069;2;TRUE;0,836134667490043;670;5;1
623;884a46b18ffa19aa3ba43c83768ec186;f;29;1;23;0,685995931620956;20,943,951,023,932;875,005,470,795,104;612,503,829,556,573;306,251,914,778,286;1;1;1;0,7;0,5;3;1152;1;TRUE;0,841736737419577;1122;5;1
624;884a46b18ffa19aa3ba43c83768ec186;f;29;1;24;395,982,617,227,891;20,943,951,023,932;793,478,694,624,761;634,782,955,699,808;317,391,477,849,904;2;1;1;0,8;0,5;3;1690;1;TRUE;0,729691898121553;1308;5;1
625;884a46b18ffa19aa3ba43c83768ec186;f;29;1;25;422,162,638,256,291;-20,943,951,023,932;644,020,555,010,089;450,814,388,507,062;270,488,633,104,237;2;1;1;0,7;0,6;3;1717;1;TRUE;0,906162486356847;1070;5;1
626;884a46b18ffa19aa3ba43c83768ec186;f;29;1;26;113,342,525,845,371;-20,943,951,023,932;498,167,922,757,256;448,351,130,481,531;179,340,452,192,612;0;1;1;0,9;0;2;1919;2;FALSE;0,967787200329351;4056;5;0
627;884a46b18ffa19aa3ba43c83768ec186;f;29;1;27;33,676,896,941,807;-20,943,951,023,932;588,245,330,709,148;558,833,064,173,691;111,766,612,834,738;2;1;1;0,95;0,2;3;1820;1;TRUE;0,987395043466605;1002;5;1
628;884a46b18ffa19aa3ba43c83768ec186;f;29;1;28;243,165,987,028,089;20,943,951,023,932;482,123,549,894,334;385,698,839,915,467;385,698,839,915,467;1;2;2;0,8;0,1;3;1851;2;TRUE;0,805322235705806;952;5;1
629;884a46b18ffa19aa3ba43c83768ec186;f;29;1;29;335,119,087,899,086;-20,943,951,023,932;54,029,283,958,852;513,278,197,609,094;307,966,918,565,456;2;2;2;0,95;0,6;3;1782;2;TRUE;0,948179357192096;861;5;1
630;884a46b18ffa19aa3ba43c83768ec186;f;29;1;30;106,882,552,584,887;20,943,951,023,932;489,891,470,044,781;455,599,067,141,646;273,359,440,284,988;0;1;1;0,93;0;2;1557;1;TRUE;0,976190754011566;871;5;1
