Code;Name;Gender;Age;Mobile;Trial_number;Angle;distance_ratio;xtarget;ytarget;sd;nsamples;color_nube1;color_nube2;color_nube3;color_buttons1;color_buttons2;color_buttons3;correct_color;correct_cloud;Nalternativas;RT_type1;Response;Correct;Confidence;RT_Confidence;Nsujeto;binary_correct
69098e4a89a3148bf3de54805dbd9744;Loli;f;31;0;2;0,830786207104017;2,5;1004;412;60;375;2;1;0;0;1;2;2;1;2;3468;1;FALSE;0.513684211;1824;1;0
69098e4a89a3148bf3de54805dbd9744;Loli;f;31;0;3;536,635,251,208,445;3;960;386,666,666,666,667;60;375;1;0;2;0;1;2;0;2;2;1723;0;TRUE;0.989473684;1091;1;1
69098e4a89a3148bf3de54805dbd9744;Loli;f;31;0;4;621,564,110,334,485;2,1;983,571,428,571,429;400,238,095,238,095;60;375;2;0;1;0;1;2;0;2;2;2706;2;FALSE;0.496842105;2738;1;0
69098e4a89a3148bf3de54805dbd9744;Loli;f;31;0;5;361,915,002,314,567;2,5;971;393;60;375;2;0;1;0;1;2;0;2;3;4572;0;TRUE;0.64;1654;1;1
69098e4a89a3148bf3de54805dbd9744;Loli;f;31;0;6;51,154,171,335,334;3;1015;418,333,333,333,333;60;375;0;1;2;0;1;2;0;1;2;1894;0;TRUE;0.788421053;2747;1;1
69098e4a89a3148bf3de54805dbd9744;Loli;f;31;0;7;327,333,381,454,094;3;960;386,666,666,666,667;60;375;1;2;0;0;1;2;2;2;2;2212;2;TRUE;0.633684211;1550;1;1
69098e4a89a3148bf3de54805dbd9744;Loli;f;31;0;8;28,647,093,430,726;3;960;386,666,666,666,667;60;375;2;1;0;0;1;2;1;2;3;2283;1;TRUE;0.708421053;2162;1;1
69098e4a89a3148bf3de54805dbd9744;Loli;f;31;0;9;112,379,015,445,494;2,1;983,571,428,571,429;400,238,095,238,095;60;375;0;2;1;0;1;2;2;2;3;2324;0;FALSE;0.965263158;2272;1;0
69098e4a89a3148bf3de54805dbd9744;Loli;f;31;0;10;296,456,138,943,914;2,1;991,428,571,428,571;404,761,904,761,905;60;375;1;0;2;0;1;2;1;1;3;2258;0;FALSE;0.947368421;2097;1;0
69098e4a89a3148bf3de54805dbd9744;Loli;f;31;0;11;329,544,553,148,308;2,5;971;393;60;375;1;2;0;0;1;2;2;2;3;5964;1;FALSE;0.858947368;1881;1;0
69098e4a89a3148bf3de54805dbd9744;Loli;f;31;0;12;343,674,749,773,067;2,1;983,571,428,571,429;400,238,095,238,095;60;375;2;0;1;0;1;2;0;2;2;1980;0;TRUE;0.843157895;1391;1;1
69098e4a89a3148bf3de54805dbd9744;Loli;f;31;0;13;236,564,269,589,303;2,1;983,571,428,571,429;400,238,095,238,095;60;375;0;1;2;0;1;2;1;2;3;2029;1;TRUE;0.948421053;769;1;1
69098e4a89a3148bf3de54805dbd9744;Loli;f;31;0;14;592,629,901,516,419;2,5;1004;412;60;375;1;0;2;0;1;2;1;1;2;2382;1;TRUE;0.946315789;710;1;1
69098e4a89a3148bf3de54805dbd9744;Loli;f;31;0;15;0,612455167758;3;1015;418,333,333,333,333;60;375;2;0;1;0;1;2;2;1;2;1959;2;TRUE;0.916842105;965;1;1
69098e4a89a3148bf3de54805dbd9744;Loli;f;31;0;16;289,018,762,576,927;3;960;386,666,666,666,667;60;375;1;0;2;0;1;2;0;2;3;2198;0;TRUE;0.778947368;1215;1;1
69098e4a89a3148bf3de54805dbd9744;Loli;f;31;0;17;302,258,934,376,157;2,1;991,428,571,428,571;404,761,904,761,905;60;375;0;2;1;0;1;2;0;1;2;2125;2;FALSE;0.618947368;1049;1;0
69098e4a89a3148bf3de54805dbd9744;Loli;f;31;0;18;0,397182812989879;2,5;971;393;60;375;0;2;1;0;1;2;2;2;3;2104;2;TRUE;0.836842105;1787;1;1
69098e4a89a3148bf3de54805dbd9744;Loli;f;31;0;19;244,771,955,526,654;2,1;991,428,571,428,571;404,761,904,761,905;60;375;2;1;0;0;1;2;2;1;3;2908;2;TRUE;0.693684211;2254;1;1
69098e4a89a3148bf3de54805dbd9744;Loli;f;31;0;20;421,845,789,243,221;2,5;1004;412;60;375;1;2;0;0;1;2;1;1;3;3861;1;TRUE;0.867368421;1301;1;1
69098e4a89a3148bf3de54805dbd9744;Loli;f;31;0;21;448,706,675,055,566;2,1;991,428,571,428,571;404,761,904,761,905;60;375;1;2;0;0;1;2;1;1;3;2350;2;FALSE;0.54;1078;1;0
69098e4a89a3148bf3de54805dbd9744;Loli;f;31;0;22;0,83760484649782;3;960;386,666,666,666,667;60;375;1;2;0;0;1;2;2;2;3;4559;2;TRUE;0.827368421;1047;1;1
69098e4a89a3148bf3de54805dbd9744;Loli;f;31;0;23;398,001,343,556,681;2,1;983,571,428,571,429;400,238,095,238,095;60;375;1;2;0;0;1;2;2;2;3;3520;2;TRUE;0.872631579;1537;1;1
69098e4a89a3148bf3de54805dbd9744;Loli;f;31;0;24;214,328,518,474,379;2,5;971;393;60;375;0;1;2;0;1;2;1;2;2;2320;1;TRUE;0.475789474;680;1;1
69098e4a89a3148bf3de54805dbd9744;Loli;f;31;0;25;0,521010575587063;2,5;1004;412;60;375;1;0;2;0;1;2;1;1;2;2614;1;TRUE;0.383157895;585;1;1
69098e4a89a3148bf3de54805dbd9744;Loli;f;31;0;26;628,188,464,201,244;3;1015;418,333,333,333,333;60;375;1;2;0;0;1;2;1;1;3;2642;1;TRUE;0.848421053;679;1;1
69098e4a89a3148bf3de54805dbd9744;Loli;f;31;0;27;390,620,324,327,141;2,5;971;393;60;375;2;0;1;0;1;2;0;2;2;1959;0;TRUE;0.637894737;1836;1;1
69098e4a89a3148bf3de54805dbd9744;Loli;f;31;0;28;250,076,012,566,936;3;1015;418,333,333,333,333;60;375;2;1;0;0;1;2;2;1;3;2404;2;TRUE;0.674736842;2035;1;1
69098e4a89a3148bf3de54805dbd9744;Loli;f;31;0;29;0,355310267487433;2,1;991,428,571,428,571;404,761,904,761,905;60;375;2;0;1;0;1;2;2;1;2;3470;0;FALSE;0.774736842;1245;1;0
69098e4a89a3148bf3de54805dbd9744;Loli;f;31;0;30;431,889,464,226,936;2,5;1004;412;60;375;2;1;0;0;1;2;2;1;3;2704;2;TRUE;0.725263158;612;1;1
69098e4a89a3148bf3de54805dbd9744;Loli;f;31;0;31;614,368,704,451,495;2,5;971;393;60;375;0;1;2;0;1;2;1;2;2;3522;1;TRUE;0.765263158;1016;1;1
69098e4a89a3148bf3de54805dbd9744;Loli;f;31;0;32;379,870,664,636,459;2,5;1004;412;60;375;2;1;0;0;1;2;2;1;2;5176;2;TRUE;0.748421053;1036;1;1
69098e4a89a3148bf3de54805dbd9744;Loli;f;31;0;33;455,654,555,966,387;2,5;971;393;60;375;0;2;1;0;1;2;2;2;3;2393;0;FALSE;0.807368421;2626;1;0
69098e4a89a3148bf3de54805dbd9744;Loli;f;31;0;34;0,84069668261589;2,5;971;393;60;375;1;2;0;0;1;2;2;2;3;2140;2;TRUE;0.811578947;7627;1;1
69098e4a89a3148bf3de54805dbd9744;Loli;f;31;0;35;298,771,584,731,857;3;960;386,666,666,666,667;60;375;2;0;1;0;1;2;0;2;3;1799;0;TRUE;0.830526316;1190;1;1
69098e4a89a3148bf3de54805dbd9744;Loli;f;31;0;36;0,967525358592633;2,1;983,571,428,571,429;400,238,095,238,095;60;375;2;1;0;0;1;2;1;2;2;3543;1;TRUE;0.855789474;2892;1;1
69098e4a89a3148bf3de54805dbd9744;Loli;f;31;0;37;0,25691534475017;2,1;983,571,428,571,429;400,238,095,238,095;60;375;2;0;1;0;1;2;0;2;2;2787;0;TRUE;0.821052632;1091;1;1
69098e4a89a3148bf3de54805dbd9744;Loli;f;31;0;38;0,662873460437169;3;1015;418,333,333,333,333;60;375;0;1;2;0;1;2;0;1;2;2484;0;TRUE;0.623157895;792;1;1
69098e4a89a3148bf3de54805dbd9744;Loli;f;31;0;39;460,420,931,686,865;3;960;386,666,666,666,667;60;375;0;1;2;0;1;2;1;2;2;3887;1;TRUE;0.955789474;1471;1;1
69098e4a89a3148bf3de54805dbd9744;Loli;f;31;0;40;0,418416066831031;3;960;386,666,666,666,667;60;375;0;2;1;0;1;2;2;2;2;2470;0;FALSE;0.885263158;1259;1;0
69098e4a89a3148bf3de54805dbd9744;Loli;f;31;0;41;128,129,030,014,359;2,5;1004;412;60;375;2;1;0;0;1;2;2;1;3;2274;2;TRUE;0.821052632;1065;1;1
69098e4a89a3148bf3de54805dbd9744;Loli;f;31;0;42;0,531187986599046;2,1;991,428,571,428,571;404,761,904,761,905;60;375;0;1;2;0;1;2;0;1;3;1760;1;FALSE;0.976842105;602;1;0
69098e4a89a3148bf3de54805dbd9744;Loli;f;31;0;43;271,322,742,398,662;2,5;971;393;60;375;0;1;2;0;1;2;1;2;3;1793;1;TRUE;0.913684211;1374;1;1
69098e4a89a3148bf3de54805dbd9744;Loli;f;31;0;44;159,691,497,199,051;2,5;971;393;60;375;2;0;1;0;1;2;0;2;3;1939;0;TRUE;0.871578947;939;1;1
69098e4a89a3148bf3de54805dbd9744;Loli;f;31;0;45;312,432,796,108,133;3;1015;418,333,333,333,333;60;375;1;2;0;0;1;2;1;1;3;1591;1;TRUE;0.835789474;1636;1;1
69098e4a89a3148bf3de54805dbd9744;Loli;f;31;0;46;575,325,522,994,242;2,1;983,571,428,571,429;400,238,095,238,095;60;375;0;1;2;0;1;2;1;2;3;2183;1;TRUE;0.890526316;3355;1;1
69098e4a89a3148bf3de54805dbd9744;Loli;f;31;0;47;105,006,287,548,362;3;960;386,666,666,666,667;60;375;2;0;1;0;1;2;0;2;3;1961;1;FALSE;0;2475;1;0
69098e4a89a3148bf3de54805dbd9744;Loli;f;31;0;48;261,645,794,326,134;2,5;1004;412;60;375;1;2;0;0;1;2;1;1;3;1887;1;TRUE;0.983157895;1147;1;1
69098e4a89a3148bf3de54805dbd9744;Loli;f;31;0;49;453,455,296,881,253;2,5;1004;412;60;375;2;1;0;0;1;2;2;1;2;2332;2;TRUE;0.741052632;1541;1;1
69098e4a89a3148bf3de54805dbd9744;Loli;f;31;0;50;428,499,525,703,949;3;1015;418,333,333,333,333;60;375;0;1;2;0;1;2;0;1;2;2437;0;TRUE;0.863157895;1371;1;1
69098e4a89a3148bf3de54805dbd9744;Loli;f;31;0;51;301,459,075,411,417;2,5;971;393;60;375;2;0;1;0;1;2;0;2;2;1846;0;TRUE;0.852631579;653;1;1
69098e4a89a3148bf3de54805dbd9744;Loli;f;31;0;52;0,887911900462145;3;960;386,666,666,666,667;60;375;2;0;1;0;1;2;0;2;2;1858;2;FALSE;0.906315789;1153;1;0
69098e4a89a3148bf3de54805dbd9744;Loli;f;31;0;53;0,94801867339665;3;1015;418,333,333,333,333;60;375;2;1;0;0;1;2;2;1;3;2576;2;TRUE;0.876842105;1877;1;1
69098e4a89a3148bf3de54805dbd9744;Loli;f;31;0;54;507,260,199,554,927;2,5;1004;412;60;375;1;2;0;0;1;2;1;1;3;2381;1;TRUE;0.964210526;797;1;1
69098e4a89a3148bf3de54805dbd9744;Loli;f;31;0;55;389,808,390,973,059;2,5;1004;412;60;375;2;0;1;0;1;2;2;1;2;2194;2;TRUE;0.884210526;1341;1;1
69098e4a89a3148bf3de54805dbd9744;Loli;f;31;0;56;0,875469994986598;2,1;991,428,571,428,571;404,761,904,761,905;60;375;1;2;0;0;1;2;1;1;3;1849;1;TRUE;0.967368421;810;1;1
69098e4a89a3148bf3de54805dbd9744;Loli;f;31;0;57;162,549,421,151,979;3;1015;418,333,333,333,333;60;375;0;2;1;0;1;2;0;1;3;1920;0;TRUE;0.897894737;911;1;1
69098e4a89a3148bf3de54805dbd9744;Loli;f;31;0;59;340,681,148,564,269;3;960;386,666,666,666,667;60;375;2;0;1;0;1;2;0;2;2;9297;0;TRUE;0.017910448;737;1;1
69098e4a89a3148bf3de54805dbd9744;Loli;f;31;0;60;207,899,333,983,711;2,5;724;282;60;375;1;2;0;0;1;2;1;1;2;1518;1;TRUE;0.931343284;1577;1;1
69098e4a89a3148bf3de54805dbd9744;Loli;f;31;0;61;0,954381393985142;2,1;703,571,428,571,429;270,238,095,238,095;60;375;1;2;0;0;1;2;2;2;2;4848;1;FALSE;0.797014925;1695;1;0
69098e4a89a3148bf3de54805dbd9744;Loli;f;31;0;62;59,789,243,757,397;2,1;711,428,571,428,571;274,761,904,761,905;60;375;1;2;0;0;1;2;1;1;2;2525;2;FALSE;0.673134328;3597;1;0
69098e4a89a3148bf3de54805dbd9744;Loli;f;31;0;63;525,977,634,605,951;3;680;256,666,666,666,667;60;375;0;1;2;0;1;2;1;2;3;1883;1;TRUE;0.964179104;2284;1;1
69098e4a89a3148bf3de54805dbd9744;Loli;f;31;0;64;142,698,728,731,347;2,5;724;282;60;375;2;0;1;0;1;2;2;1;2;2215;2;TRUE;0.968656716;3250;1;1
69098e4a89a3148bf3de54805dbd9744;Loli;f;31;0;65;357,826,157,929,627;2,5;724;282;60;375;2;0;1;0;1;2;2;1;3;2055;2;TRUE;1;753;1;1
69098e4a89a3148bf3de54805dbd9744;Loli;f;31;0;66;554,146,226,791,101;3;735;288,333,333,333,333;60;375;0;1;2;0;1;2;0;1;2;2533;0;TRUE;0.91641791;1308;1;1
69098e4a89a3148bf3de54805dbd9744;Loli;f;31;0;67;628,160,673,606,004;3;680;256,666,666,666,667;60;375;0;1;2;0;1;2;1;2;2;2300;1;TRUE;0.873134328;929;1;1
69098e4a89a3148bf3de54805dbd9744;Loli;f;31;0;68;121,400,616,475,205;2,1;703,571,428,571,429;270,238,095,238,095;60;375;0;1;2;0;1;2;1;2;2;2897;1;TRUE;0.850746269;1524;1;1
69098e4a89a3148bf3de54805dbd9744;Loli;f;31;0;69;0,533441027001839;2,1;711,428,571,428,571;274,761,904,761,905;60;375;1;2;0;0;1;2;1;1;2;3167;1;TRUE;0.856716418;1136;1;1
69098e4a89a3148bf3de54805dbd9744;Loli;f;31;0;70;34,065,787,559,594;3;680;256,666,666,666,667;60;375;1;2;0;0;1;2;2;2;2;3791;2;TRUE;0.674626866;2659;1;1
69098e4a89a3148bf3de54805dbd9744;Loli;f;31;0;71;227,740,110,193,067;3;735;288,333,333,333,333;60;375;0;2;1;0;1;2;0;1;2;2547;0;TRUE;0.970149254;625;1;1
69098e4a89a3148bf3de54805dbd9744;Loli;f;31;0;72;10,152,755,870,175;2,5;724;282;60;375;2;0;1;0;1;2;2;1;3;4756;2;TRUE;0.965671642;953;1;1
69098e4a89a3148bf3de54805dbd9744;Loli;f;31;0;73;257,180,612,652,071;3;735;288,333,333,333,333;60;375;2;0;1;0;1;2;2;1;2;4307;2;TRUE;0.967164179;1089;1;1
69098e4a89a3148bf3de54805dbd9744;Loli;f;31;0;74;615,310,164,681,996;3;735;288,333,333,333,333;60;375;2;0;1;0;1;2;2;1;2;1862;2;TRUE;0.96119403;914;1;1
69098e4a89a3148bf3de54805dbd9744;Loli;f;31;0;75;304,597,684,890,271;3;735;288,333,333,333,333;60;375;2;0;1;0;1;2;2;1;2;1996;2;TRUE;0.926865672;1265;1;1
69098e4a89a3148bf3de54805dbd9744;Loli;f;31;0;76;0,444571604909376;2,1;711,428,571,428,571;274,761,904,761,905;60;375;0;2;1;0;1;2;0;1;2;2409;0;TRUE;0.958208955;2440;1;1
69098e4a89a3148bf3de54805dbd9744;Loli;f;31;0;77;414,879,116,556,193;2,5;691;263;60;375;0;2;1;0;1;2;2;2;2;2172;2;TRUE;0.920895522;1877;1;1
69098e4a89a3148bf3de54805dbd9744;Loli;f;31;0;78;11,370,475,754,148;2,1;703,571,428,571,429;270,238,095,238,095;60;375;0;1;2;0;1;2;1;2;3;2245;1;TRUE;0.973134328;1453;1;1
69098e4a89a3148bf3de54805dbd9744;Loli;f;31;0;79;148,170,303,386,927;2,1;703,571,428,571,429;270,238,095,238,095;60;375;0;2;1;0;1;2;2;2;2;3488;2;TRUE;0.940298507;1117;1;1
69098e4a89a3148bf3de54805dbd9744;Loli;f;31;0;80;217,228,570,204,705;2,5;691;263;60;375;2;0;1;0;1;2;0;2;2;2527;0;TRUE;0.880597015;1160;1;1
69098e4a89a3148bf3de54805dbd9744;Loli;f;31;0;81;502,916,711,337,357;3;680;256,666,666,666,667;60;375;2;1;0;0;1;2;1;2;3;1951;1;TRUE;0.944776119;4448;1;1
69098e4a89a3148bf3de54805dbd9744;Loli;f;31;0;82;0,7522208670929;2,5;724;282;60;375;0;2;1;0;1;2;0;1;2;2183;0;TRUE;0.520895522;804;1;1
69098e4a89a3148bf3de54805dbd9744;Loli;f;31;0;83;0,0703481893038472;3;680;256,666,666,666,667;60;375;0;1;2;0;1;2;1;2;3;2226;1;TRUE;0.885074627;1570;1;1
69098e4a89a3148bf3de54805dbd9744;Loli;f;31;0;84;0,616884975228293;2,1;711,428,571,428,571;274,761,904,761,905;60;375;1;2;0;0;1;2;1;1;3;1574;1;TRUE;0.932835821;2038;1;1
69098e4a89a3148bf3de54805dbd9744;Loli;f;31;0;85;0,285819524793185;2,5;724;282;60;375;0;2;1;0;1;2;0;1;3;1701;0;TRUE;0.843283582;1453;1;1
69098e4a89a3148bf3de54805dbd9744;Loli;f;31;0;86;235,987,015,182,546;2,5;691;263;60;375;1;0;2;0;1;2;0;2;2;1992;0;TRUE;0.989552239;1412;1;1
69098e4a89a3148bf3de54805dbd9744;Loli;f;31;0;87;11,198,917,652,016;2,1;703,571,428,571,429;270,238,095,238,095;60;375;0;1;2;0;1;2;1;2;2;2774;1;TRUE;0.986567164;2860;1;1
69098e4a89a3148bf3de54805dbd9744;Loli;f;31;0;88;194,248,277,314,712;2,5;724;282;60;375;2;1;0;0;1;2;2;1;2;5611;2;TRUE;0.962686567;1381;1;1
69098e4a89a3148bf3de54805dbd9744;Loli;f;31;0;89;517,658,511,320,615;3;735;288,333,333,333,333;60;375;2;0;1;0;1;2;2;1;2;4716;2;TRUE;0.949253731;1384;1;1
69098e4a89a3148bf3de54805dbd9744;Loli;f;31;0;90;539,808,103,515,074;3;735;288,333,333,333,333;60;375;1;2;0;0;1;2;1;1;3;1844;1;TRUE;0.955223881;1714;1;1
69098e4a89a3148bf3de54805dbd9744;Loli;f;31;0;91;500,192,966,615,547;2,5;691;263;60;375;0;1;2;0;1;2;1;2;3;2028;1;TRUE;0.898507463;4006;1;1
69098e4a89a3148bf3de54805dbd9744;Loli;f;31;0;92;605,016,069,458,077;3;680;256,666,666,666,667;60;375;1;2;0;0;1;2;2;2;3;2280;2;TRUE;0.994029851;1109;1;1
69098e4a89a3148bf3de54805dbd9744;Loli;f;31;0;93;482,704,951,166,065;2,5;724;282;60;375;1;2;0;0;1;2;1;1;3;2047;1;TRUE;0.989552239;3292;1;1
69098e4a89a3148bf3de54805dbd9744;Loli;f;31;0;94;28,278,961,631,498;2,5;691;263;60;375;2;1;0;0;1;2;1;2;3;2348;1;TRUE;0.976119403;1715;1;1
69098e4a89a3148bf3de54805dbd9744;Loli;f;31;0;95;105,931,160,050,268;2,1;711,428,571,428,571;274,761,904,761,905;60;375;2;1;0;0;1;2;2;1;2;1989;1;FALSE;0.991044776;2331;1;0
69098e4a89a3148bf3de54805dbd9744;Loli;f;31;0;96;52,474,707,559,689;2,1;703,571,428,571,429;270,238,095,238,095;60;375;2;0;1;0;1;2;0;2;2;2450;2;FALSE;0.855223881;1277;1;0
69098e4a89a3148bf3de54805dbd9744;Loli;f;31;0;97;379,735,947,839,291;2,1;711,428,571,428,571;274,761,904,761,905;60;375;1;2;0;0;1;2;1;1;3;2221;1;TRUE;0.982089552;3686;1;1
69098e4a89a3148bf3de54805dbd9744;Loli;f;31;0;98;0,0973652034456328;2,5;691;263;60;375;1;2;0;0;1;2;2;2;2;2600;2;TRUE;0.756716418;938;1;1
69098e4a89a3148bf3de54805dbd9744;Loli;f;31;0;99;455,697,014,434,135;3;680;256,666,666,666,667;60;375;0;2;1;0;1;2;2;2;2;2423;2;TRUE;0.971641791;1503;1;1
69098e4a89a3148bf3de54805dbd9744;Loli;f;31;0;100;584,678,921,931,016;2,1;711,428,571,428,571;274,761,904,761,905;60;375;2;0;1;0;1;2;2;1;3;2451;0;FALSE;0.895522388;1420;1;0
69098e4a89a3148bf3de54805dbd9744;Loli;f;31;0;101;625,166,343,798,819;3;735;288,333,333,333,333;60;375;0;1;2;0;1;2;0;1;3;2073;0;TRUE;0.980597015;1650;1;1
69098e4a89a3148bf3de54805dbd9744;Loli;f;31;0;102;425,019,686,949,702;3;680;256,666,666,666,667;60;375;1;0;2;0;1;2;0;2;3;2428;0;TRUE;0.976119403;2028;1;1
69098e4a89a3148bf3de54805dbd9744;Loli;f;31;0;103;229,333,446,714,983;2,1;703,571,428,571,429;270,238,095,238,095;60;375;1;0;2;0;1;2;0;2;3;1983;1;FALSE;0.985074627;2058;1;0
69098e4a89a3148bf3de54805dbd9744;Loli;f;31;0;104;579,370,414,635,573;2,1;703,571,428,571,429;270,238,095,238,095;60;375;0;2;1;0;1;2;2;2;2;2014;2;TRUE;0.970149254;2111;1;1
69098e4a89a3148bf3de54805dbd9744;Loli;f;31;0;105;321,719,795,942,802;2,1;703,571,428,571,429;270,238,095,238,095;60;375;2;0;1;0;1;2;0;2;3;2316;2;FALSE;0.974626866;1662;1;0
69098e4a89a3148bf3de54805dbd9744;Loli;f;31;0;106;150,467,100,060,131;3;735;288,333,333,333,333;60;375;2;1;0;0;1;2;2;1;3;2173;2;TRUE;0.717910448;903;1;1
69098e4a89a3148bf3de54805dbd9744;Loli;f;31;0;107;246,526,258,010,839;2,1;711,428,571,428,571;274,761,904,761,905;60;375;1;2;0;0;1;2;1;1;3;2334;1;TRUE;0.701492537;575;1;1
69098e4a89a3148bf3de54805dbd9744;Loli;f;31;0;108;113,208,927,815,707;2,1;711,428,571,428,571;274,761,904,761,905;60;375;1;0;2;0;1;2;1;1;2;2216;1;TRUE;0.689552239;1759;1;1
69098e4a89a3148bf3de54805dbd9744;Loli;f;31;0;109;183,930,397,091,744;2,1;703,571,428,571,429;270,238,095,238,095;60;375;2;0;1;0;1;2;0;2;2;2639;0;TRUE;0.83880597;860;1;1
69098e4a89a3148bf3de54805dbd9744;Loli;f;31;0;110;0,191408168963971;3;680;256,666,666,666,667;60;375;0;2;1;0;1;2;2;2;2;2639;2;TRUE;0.876119403;1354;1;1
69098e4a89a3148bf3de54805dbd9744;Loli;f;31;0;111;441,784,068,871,602;2,1;703,571,428,571,429;270,238,095,238,095;60;375;1;2;0;0;1;2;2;2;3;3046;2;TRUE;0.88358209;2615;1;1
69098e4a89a3148bf3de54805dbd9744;Loli;f;31;0;112;53,796,424,696,165;3;680;256,666,666,666,667;60;375;2;1;0;0;1;2;1;2;3;2314;1;TRUE;0.880597015;1060;1;1
69098e4a89a3148bf3de54805dbd9744;Loli;f;31;0;113;375,999,615,454,181;3;680;256,666,666,666,667;60;375;0;1;2;0;1;2;1;2;3;2282;1;TRUE;0.992537313;1600;1;1
69098e4a89a3148bf3de54805dbd9744;Loli;f;31;0;114;255,726,359,634;2,1;711,428,571,428,571;274,761,904,761,905;60;375;2;0;1;0;1;2;2;1;2;3060;0;FALSE;0.598507463;726;1;0
69098e4a89a3148bf3de54805dbd9744;Loli;f;31;0;115;166,885,898,387,412;2,5;691;263;60;375;0;1;2;0;1;2;1;2;2;2550;1;TRUE;0.943283582;3020;1;1
69098e4a89a3148bf3de54805dbd9744;Loli;f;31;0;116;596,574,740,219,278;2,1;703,571,428,571,429;270,238,095,238,095;60;375;0;2;1;0;1;2;2;2;3;2675;2;TRUE;0.792537313;2595;1;1
69098e4a89a3148bf3de54805dbd9744;Loli;f;31;0;117;568,166,383,969,278;2,1;703,571,428,571,429;270,238,095,238,095;60;375;0;1;2;0;1;2;1;2;3;1811;1;TRUE;0.985074627;1683;1;1
69098e4a89a3148bf3de54805dbd9744;Loli;f;31;0;118;0,848063396955697;2,5;724;282;60;375;0;1;2;0;1;2;0;1;3;2708;1;FALSE;0.98358209;2966;1;0
69098e4a89a3148bf3de54805dbd9744;Loli;f;31;0;119;250,434,030,312,865;2,5;691;263;60;375;0;1;2;0;1;2;1;2;3;2407;1;TRUE;0.979104478;2653;1;1
69098e4a89a3148bf3de54805dbd9744;Loli;f;31;0;120;125,392,431,099,468;2,1;703,571,428,571,429;270,238,095,238,095;60;375;0;1;2;0;1;2;1;2;3;2800;1;TRUE;0.973134328;2226;1;1
eaee3e0502579afc7f8c8e7e561cc9b7;Nazarena;f;22;0;1;213,077,229,682,558;2,5;1004;412;60;375;1;2;0;0;1;2;1;1;2;3199;1;TRUE;0.774736842;4205;2;1
eaee3e0502579afc7f8c8e7e561cc9b7;Nazarena;f;22;0;2;188,885,051,573,221;2,1;983,571,428,571,429;400,238,095,238,095;60;375;1;2;0;0;1;2;2;2;2;2848;1;FALSE;0.784210526;1822;2;0
eaee3e0502579afc7f8c8e7e561cc9b7;Nazarena;f;22;0;3;0,0958764068662948;3;1015;418,333,333,333,333;60;375;2;0;1;0;1;2;2;1;3;2380;2;TRUE;0.802105263;1158;2;1
eaee3e0502579afc7f8c8e7e561cc9b7;Nazarena;f;22;0;4;0,900661272258183;3;1015;418,333,333,333,333;60;375;0;1;2;0;1;2;0;1;2;5543;0;TRUE;0.755789474;2710;2;1
eaee3e0502579afc7f8c8e7e561cc9b7;Nazarena;f;22;0;5;0,734038488588073;2,5;1004;412;60;375;1;0;2;0;1;2;1;1;2;3464;1;TRUE;0.501052632;3085;2;1
eaee3e0502579afc7f8c8e7e561cc9b7;Nazarena;f;22;0;6;518,130,856,786,221;2,5;1004;412;60;375;1;2;0;0;1;2;1;1;2;3512;1;TRUE;0.663157895;1832;2;1
eaee3e0502579afc7f8c8e7e561cc9b7;Nazarena;f;22;0;7;304,030,749,609,023;2,5;1004;412;60;375;0;1;2;0;1;2;0;1;2;4633;1;FALSE;0.503157895;2862;2;0
eaee3e0502579afc7f8c8e7e561cc9b7;Nazarena;f;22;0;8;0,463113510430247;3;960;386,666,666,666,667;60;375;1;0;2;0;1;2;0;2;2;2284;0;TRUE;1;1173;2;1
eaee3e0502579afc7f8c8e7e561cc9b7;Nazarena;f;22;0;9;379,882,339,957,686;3;1015;418,333,333,333,333;60;375;0;2;1;0;1;2;0;1;2;3306;2;FALSE;0.407368421;718;2;0
eaee3e0502579afc7f8c8e7e561cc9b7;Nazarena;f;22;0;10;161,888,049,399,572;2,1;983,571,428,571,429;400,238,095,238,095;60;375;2;0;1;0;1;2;0;2;2;2619;2;FALSE;0.541052632;1623;2;0
eaee3e0502579afc7f8c8e7e561cc9b7;Nazarena;f;22;0;11;274,990,055,434,303;3;1015;418,333,333,333,333;60;375;2;1;0;0;1;2;2;1;3;3339;2;TRUE;0.484210526;1290;2;1
eaee3e0502579afc7f8c8e7e561cc9b7;Nazarena;f;22;0;12;348,021,764,407,625;3;1015;418,333,333,333,333;60;375;0;2;1;0;1;2;0;1;3;4409;0;TRUE;0.709473684;1575;2;1
eaee3e0502579afc7f8c8e7e561cc9b7;Nazarena;f;22;0;13;628,116,736,752,263;2,1;983,571,428,571,429;400,238,095,238,095;60;375;1;0;2;0;1;2;0;2;3;2449;1;FALSE;0.691578947;751;2;0
eaee3e0502579afc7f8c8e7e561cc9b7;Nazarena;f;22;0;14;222,835,045,859,122;2,1;991,428,571,428,571;404,761,904,761,905;60;375;1;0;2;0;1;2;1;1;2;2439;1;TRUE;0.658947368;1342;2;1
eaee3e0502579afc7f8c8e7e561cc9b7;Nazarena;f;22;0;15;0,513268949553984;2,1;991,428,571,428,571;404,761,904,761,905;60;375;0;1;2;0;1;2;0;1;2;3013;0;TRUE;0.450526316;998;2;1
eaee3e0502579afc7f8c8e7e561cc9b7;Nazarena;f;22;0;16;0,301984884761893;2,5;1004;412;60;375;1;2;0;0;1;2;1;1;2;2524;1;TRUE;0.594736842;719;2;1
eaee3e0502579afc7f8c8e7e561cc9b7;Nazarena;f;22;0;17;438,367,458,275,405;3;1015;418,333,333,333,333;60;375;0;1;2;0;1;2;0;1;3;2524;1;FALSE;0.774736842;966;2;0
eaee3e0502579afc7f8c8e7e561cc9b7;Nazarena;f;22;0;18;55,426,817,993,617;2,5;1004;412;60;375;1;2;0;0;1;2;1;1;3;3768;1;TRUE;0.571578947;719;2;1
eaee3e0502579afc7f8c8e7e561cc9b7;Nazarena;f;22;0;19;144,311,106,940,136;2,5;1004;412;60;375;1;2;0;0;1;2;1;1;2;4609;1;TRUE;0.706315789;894;2;1
eaee3e0502579afc7f8c8e7e561cc9b7;Nazarena;f;22;0;20;516,126,892,061,695;2,1;991,428,571,428,571;404,761,904,761,905;60;375;1;0;2;0;1;2;1;1;2;5538;1;TRUE;0.634736842;2080;2;1
eaee3e0502579afc7f8c8e7e561cc9b7;Nazarena;f;22;0;21;0,801866091855619;2,1;983,571,428,571,429;400,238,095,238,095;60;375;1;0;2;0;1;2;0;2;3;3095;1;FALSE;0.682105263;862;2;0
eaee3e0502579afc7f8c8e7e561cc9b7;Nazarena;f;22;0;22;547,661,891,716,891;3;960;386,666,666,666,667;60;375;0;1;2;0;1;2;1;2;3;1945;1;TRUE;0.851578947;759;2;1
eaee3e0502579afc7f8c8e7e561cc9b7;Nazarena;f;22;0;23;0,929544692432624;2,1;991,428,571,428,571;404,761,904,761,905;60;375;1;2;0;0;1;2;1;1;3;2420;1;TRUE;0.904210526;798;2;1
eaee3e0502579afc7f8c8e7e561cc9b7;Nazarena;f;22;0;24;31,124,625,174,067;2,1;991,428,571,428,571;404,761,904,761,905;60;375;0;2;1;0;1;2;0;1;3;4037;0;TRUE;0.357894737;621;2;1
eaee3e0502579afc7f8c8e7e561cc9b7;Nazarena;f;22;0;25;464,437,446,319,467;2,1;983,571,428,571,429;400,238,095,238,095;60;375;0;2;1;0;1;2;2;2;3;2815;2;TRUE;0.792631579;991;2;1
eaee3e0502579afc7f8c8e7e561cc9b7;Nazarena;f;22;0;26;0,742367297993666;2,1;983,571,428,571,429;400,238,095,238,095;60;375;1;2;0;0;1;2;2;2;3;5151;1;FALSE;0.766315789;791;2;0
eaee3e0502579afc7f8c8e7e561cc9b7;Nazarena;f;22;0;27;209,758,762,111,936;3;960;386,666,666,666,667;60;375;2;1;0;0;1;2;1;2;3;2202;1;TRUE;0.830526316;718;2;1
eaee3e0502579afc7f8c8e7e561cc9b7;Nazarena;f;22;0;28;478,040,592,902,699;3;1015;418,333,333,333,333;60;375;0;1;2;0;1;2;0;1;2;1718;0;TRUE;0.825263158;1024;2;1
eaee3e0502579afc7f8c8e7e561cc9b7;Nazarena;f;22;0;29;484,939,064,732,751;2,5;971;393;60;375;2;1;0;0;1;2;1;2;3;5210;1;TRUE;0.751578947;807;2;1
eaee3e0502579afc7f8c8e7e561cc9b7;Nazarena;f;22;0;30;617,367,265,033,731;3;1015;418,333,333,333,333;60;375;0;1;2;0;1;2;0;1;2;2297;1;FALSE;0.286315789;759;2;0
eaee3e0502579afc7f8c8e7e561cc9b7;Nazarena;f;22;0;31;441,835,727,791,707;2,5;971;393;60;375;0;1;2;0;1;2;1;2;3;2454;1;TRUE;0.849473684;671;2;1
eaee3e0502579afc7f8c8e7e561cc9b7;Nazarena;f;22;0;32;468,133,955,746,625;2,5;971;393;60;375;0;1;2;0;1;2;1;2;2;2251;1;TRUE;0.846315789;743;2;1
eaee3e0502579afc7f8c8e7e561cc9b7;Nazarena;f;22;0;33;239,262,462,939,795;3;960;386,666,666,666,667;60;375;0;2;1;0;1;2;2;2;3;2300;2;TRUE;0.833684211;871;2;1
eaee3e0502579afc7f8c8e7e561cc9b7;Nazarena;f;22;0;34;221,686,462,940,194;3;1015;418,333,333,333,333;60;375;0;2;1;0;1;2;0;1;2;3376;0;TRUE;0.437894737;1047;2;1
eaee3e0502579afc7f8c8e7e561cc9b7;Nazarena;f;22;0;35;582,252,678,929,499;3;1015;418,333,333,333,333;60;375;1;2;0;0;1;2;1;1;2;2045;1;TRUE;0.843157895;1011;2;1
eaee3e0502579afc7f8c8e7e561cc9b7;Nazarena;f;22;0;36;508,077,696,420,782;2,1;983,571,428,571,429;400,238,095,238,095;60;375;0;2;1;0;1;2;2;2;2;2580;0;FALSE;0.395789474;902;2;0
eaee3e0502579afc7f8c8e7e561cc9b7;Nazarena;f;22;0;37;149,720,424,992,776;2,5;1004;412;60;375;1;0;2;0;1;2;1;1;2;2153;1;TRUE;0.906315789;831;2;1
eaee3e0502579afc7f8c8e7e561cc9b7;Nazarena;f;22;0;38;421,095,560,712,531;2,1;983,571,428,571,429;400,238,095,238,095;60;375;1;2;0;0;1;2;2;2;2;1987;1;FALSE;0.802105263;639;2;0
eaee3e0502579afc7f8c8e7e561cc9b7;Nazarena;f;22;0;39;621,503,758,480,038;2,5;971;393;60;375;0;2;1;0;1;2;2;2;2;2491;2;TRUE;0.422105263;526;2;1
eaee3e0502579afc7f8c8e7e561cc9b7;Nazarena;f;22;0;40;450,372,489,314,237;2,1;991,428,571,428,571;404,761,904,761,905;60;375;1;0;2;0;1;2;1;1;3;1964;1;TRUE;0.881052632;847;2;1
eaee3e0502579afc7f8c8e7e561cc9b7;Nazarena;f;22;0;41;552,927,400,451,514;2,1;991,428,571,428,571;404,761,904,761,905;60;375;0;1;2;0;1;2;0;1;2;2148;0;TRUE;0.386315789;639;2;1
eaee3e0502579afc7f8c8e7e561cc9b7;Nazarena;f;22;0;42;540,367,803,962,186;3;1015;418,333,333,333,333;60;375;1;2;0;0;1;2;1;1;2;3761;1;TRUE;0.743157895;806;2;1
eaee3e0502579afc7f8c8e7e561cc9b7;Nazarena;f;22;0;43;368,060,915,505,587;2,1;991,428,571,428,571;404,761,904,761,905;60;375;2;1;0;0;1;2;2;1;2;3319;1;FALSE;0.314736842;575;2;0
eaee3e0502579afc7f8c8e7e561cc9b7;Nazarena;f;22;0;44;332,278,682,106,337;2,1;983,571,428,571,429;400,238,095,238,095;60;375;2;1;0;0;1;2;1;2;3;2286;1;TRUE;0.906315789;894;2;1
eaee3e0502579afc7f8c8e7e561cc9b7;Nazarena;f;22;0;45;293,003,861,815,461;3;1015;418,333,333,333,333;60;375;1;0;2;0;1;2;1;1;3;1790;1;TRUE;0.827368421;784;2;1
eaee3e0502579afc7f8c8e7e561cc9b7;Nazarena;f;22;0;46;415,540,290,404,576;2,1;983,571,428,571,429;400,238,095,238,095;60;375;0;2;1;0;1;2;2;2;3;3313;2;TRUE;0.433684211;1095;2;1
eaee3e0502579afc7f8c8e7e561cc9b7;Nazarena;f;22;0;47;412,897,335,734,021;2,5;1004;412;60;375;1;0;2;0;1;2;1;1;3;2745;1;TRUE;0.388421053;599;2;1
eaee3e0502579afc7f8c8e7e561cc9b7;Nazarena;f;22;0;48;129,076,532,303,207;2,5;971;393;60;375;1;0;2;0;1;2;0;2;2;1869;0;TRUE;0.746315789;1192;2;1
eaee3e0502579afc7f8c8e7e561cc9b7;Nazarena;f;22;0;49;290,036,431,092,736;3;1015;418,333,333,333,333;60;375;0;2;1;0;1;2;0;1;3;2170;0;TRUE;0.696842105;838;2;1
eaee3e0502579afc7f8c8e7e561cc9b7;Nazarena;f;22;0;50;386,852,939,866,124;2,1;983,571,428,571,429;400,238,095,238,095;60;375;0;2;1;0;1;2;2;2;2;1868;2;TRUE;0.714736842;781;2;1
eaee3e0502579afc7f8c8e7e561cc9b7;Nazarena;f;22;0;51;158,109,372,085,719;2,5;971;393;60;375;1;2;0;0;1;2;2;2;3;2082;1;FALSE;0.693684211;831;2;0
eaee3e0502579afc7f8c8e7e561cc9b7;Nazarena;f;22;0;52;0,501503752744186;2,5;971;393;60;375;1;0;2;0;1;2;0;2;2;3216;1;FALSE;0.369473684;615;2;0
eaee3e0502579afc7f8c8e7e561cc9b7;Nazarena;f;22;0;53;343,209,922,557,841;3;960;386,666,666,666,667;60;375;2;0;1;0;1;2;0;2;3;1966;0;TRUE;0.726315789;918;2;1
eaee3e0502579afc7f8c8e7e561cc9b7;Nazarena;f;22;0;54;353,564,998,917,913;3;960;386,666,666,666,667;60;375;1;2;0;0;1;2;2;2;2;3188;2;TRUE;0.638947368;1200;2;1
eaee3e0502579afc7f8c8e7e561cc9b7;Nazarena;f;22;0;55;551,758,134,370,035;3;1015;418,333,333,333,333;60;375;1;2;0;0;1;2;1;1;2;2221;1;TRUE;0.604210526;560;2;1
eaee3e0502579afc7f8c8e7e561cc9b7;Nazarena;f;22;0;56;438,125,058,669,505;3;1015;418,333,333,333,333;60;375;2;0;1;0;1;2;2;1;3;1806;2;TRUE;0.669473684;823;2;1
eaee3e0502579afc7f8c8e7e561cc9b7;Nazarena;f;22;0;57;496,546,901,669,895;2,5;1004;412;60;375;0;2;1;0;1;2;0;1;2;2103;0;TRUE;0.746315789;879;2;1
eaee3e0502579afc7f8c8e7e561cc9b7;Nazarena;f;22;0;58;476,644,602,321,474;2,5;971;393;60;375;0;2;1;0;1;2;2;2;3;1752;2;TRUE;0.418947368;710;2;1
eaee3e0502579afc7f8c8e7e561cc9b7;Nazarena;f;22;0;59;280,190,687,666,807;2,1;991,428,571,428,571;404,761,904,761,905;60;375;0;2;1;0;1;2;0;1;3;2141;0;TRUE;0.656842105;847;2;1
eaee3e0502579afc7f8c8e7e561cc9b7;Nazarena;f;22;0;60;602,083,025,285,341;2,5;1004;412;60;375;2;0;1;0;1;2;2;1;3;4285;2;TRUE;0.613684211;758;2;1
eaee3e0502579afc7f8c8e7e561cc9b7;Nazarena;f;22;0;61;261,633,207,809,662;3;960;386,666,666,666,667;60;375;0;2;1;0;1;2;2;2;2;2243;2;TRUE;0.762105263;838;2;1
eaee3e0502579afc7f8c8e7e561cc9b7;Nazarena;f;22;0;62;187,626,878,598,565;3;1015;418,333,333,333,333;60;375;1;2;0;0;1;2;1;1;2;2641;1;TRUE;0.387368421;1294;2;1
eaee3e0502579afc7f8c8e7e561cc9b7;Nazarena;f;22;0;63;308,582,162,009,158;3;1015;418,333,333,333,333;60;375;2;0;1;0;1;2;2;1;2;2325;2;TRUE;0.570526316;799;2;1
eaee3e0502579afc7f8c8e7e561cc9b7;Nazarena;f;22;0;64;150,011,915,225,723;3;960;386,666,666,666,667;60;375;0;1;2;0;1;2;1;2;2;2265;1;TRUE;1;1007;2;1
eaee3e0502579afc7f8c8e7e561cc9b7;Nazarena;f;22;0;65;497,171,530,054,074;3;960;386,666,666,666,667;60;375;1;0;2;0;1;2;0;2;3;2167;0;TRUE;0.913684211;1099;2;1
eaee3e0502579afc7f8c8e7e561cc9b7;Nazarena;f;22;0;66;542,020,454,709,895;3;1015;418,333,333,333,333;60;375;0;2;1;0;1;2;0;1;2;2261;0;TRUE;1;1487;2;1
eaee3e0502579afc7f8c8e7e561cc9b7;Nazarena;f;22;0;67;253,811,005,660,764;2,1;991,428,571,428,571;404,761,904,761,905;60;375;1;0;2;0;1;2;1;1;2;2429;1;TRUE;0.395789474;534;2;1
eaee3e0502579afc7f8c8e7e561cc9b7;Nazarena;f;22;0;68;33,949,572,104,045;2,5;1004;412;60;375;1;0;2;0;1;2;1;1;3;2852;1;TRUE;0.362105263;654;2;1
eaee3e0502579afc7f8c8e7e561cc9b7;Nazarena;f;22;0;69;238,714,427,934,793;2,1;991,428,571,428,571;404,761,904,761,905;60;375;2;1;0;0;1;2;2;1;2;2208;1;FALSE;0.776842105;1079;2;0
eaee3e0502579afc7f8c8e7e561cc9b7;Nazarena;f;22;0;70;610,058,682,404,719;3;960;386,666,666,666,667;60;375;1;2;0;0;1;2;2;2;2;2336;2;TRUE;0.371578947;878;2;1
eaee3e0502579afc7f8c8e7e561cc9b7;Nazarena;f;22;0;71;0,613680415222579;3;1015;418,333,333,333,333;60;375;0;2;1;0;1;2;0;1;3;2998;0;TRUE;0.901052632;743;2;1
eaee3e0502579afc7f8c8e7e561cc9b7;Nazarena;f;22;0;72;484,716,763,442,901;2,5;1004;412;60;375;0;1;2;0;1;2;0;1;3;3095;0;TRUE;0.637894737;510;2;1
eaee3e0502579afc7f8c8e7e561cc9b7;Nazarena;f;22;0;73;111,168,846,285,201;2,5;971;393;60;375;1;0;2;0;1;2;0;2;3;2697;0;TRUE;0.307368421;760;2;1
eaee3e0502579afc7f8c8e7e561cc9b7;Nazarena;f;22;0;74;33,454,268,550,623;2,1;991,428,571,428,571;404,761,904,761,905;60;375;0;1;2;0;1;2;0;1;3;2220;1;FALSE;0.876842105;719;2;0
eaee3e0502579afc7f8c8e7e561cc9b7;Nazarena;f;22;0;75;13,916,500,470,858;2,5;1004;412;60;375;0;1;2;0;1;2;0;1;3;2402;1;FALSE;0.753684211;711;2;0
eaee3e0502579afc7f8c8e7e561cc9b7;Nazarena;f;22;0;76;509,754,592,546,315;3;960;386,666,666,666,667;60;375;0;2;1;0;1;2;2;2;3;2662;2;TRUE;0.569473684;590;2;1
eaee3e0502579afc7f8c8e7e561cc9b7;Nazarena;f;22;0;77;379,294,524,369,043;2,5;971;393;60;375;0;2;1;0;1;2;2;2;3;1963;2;TRUE;0.578947368;678;2;1
eaee3e0502579afc7f8c8e7e561cc9b7;Nazarena;f;22;0;78;0,628905900632399;3;1015;418,333,333,333,333;60;375;0;2;1;0;1;2;0;1;2;2644;0;TRUE;0.909473684;664;2;1
eaee3e0502579afc7f8c8e7e561cc9b7;Nazarena;f;22;0;79;559,877,210,284,591;3;1015;418,333,333,333,333;60;375;0;1;2;0;1;2;0;1;3;1993;0;TRUE;0.382105263;807;2;1
eaee3e0502579afc7f8c8e7e561cc9b7;Nazarena;f;22;0;80;0,62116441687665;2,5;1004;412;60;375;2;1;0;0;1;2;2;1;2;3777;2;TRUE;0.476842105;1359;2;1
eaee3e0502579afc7f8c8e7e561cc9b7;Nazarena;f;22;0;81;299,059,288,582,182;2,1;991,428,571,428,571;404,761,904,761,905;60;375;2;0;1;0;1;2;2;1;3;3827;0;FALSE;0.378947368;1064;2;0
eaee3e0502579afc7f8c8e7e561cc9b7;Nazarena;f;22;0;82;387,480,399,314,681;2,1;991,428,571,428,571;404,761,904,761,905;60;375;1;2;0;0;1;2;1;1;2;1912;1;TRUE;0.804210526;1133;2;1
eaee3e0502579afc7f8c8e7e561cc9b7;Nazarena;f;22;0;83;549,287,519,577,703;2,5;1004;412;60;375;1;0;2;0;1;2;1;1;2;1630;1;TRUE;0.857894737;824;2;1
eaee3e0502579afc7f8c8e7e561cc9b7;Nazarena;f;22;0;84;558,884,620,199,261;2,5;971;393;60;375;2;1;0;0;1;2;1;2;2;2916;1;TRUE;0.738947368;1264;2;1
eaee3e0502579afc7f8c8e7e561cc9b7;Nazarena;f;22;0;85;0,750119443522315;3;960;386,666,666,666,667;60;375;1;0;2;0;1;2;0;2;2;2287;0;TRUE;0.370526316;487;2;1
eaee3e0502579afc7f8c8e7e561cc9b7;Nazarena;f;22;0;86;317,524,257,708,346;2,1;991,428,571,428,571;404,761,904,761,905;60;375;1;0;2;0;1;2;1;1;3;2282;1;TRUE;0.291578947;1423;2;1
eaee3e0502579afc7f8c8e7e561cc9b7;Nazarena;f;22;0;87;275,099,337,580,846;2,5;1004;412;60;375;0;2;1;0;1;2;0;1;3;2062;0;TRUE;0.510526316;582;2;1
eaee3e0502579afc7f8c8e7e561cc9b7;Nazarena;f;22;0;88;152,086,907,017,182;2,1;991,428,571,428,571;404,761,904,761,905;60;375;1;0;2;0;1;2;1;1;3;1982;1;TRUE;0.803157895;671;2;1
eaee3e0502579afc7f8c8e7e561cc9b7;Nazarena;f;22;0;89;520,177,591,633,175;2,5;1004;412;60;375;1;0;2;0;1;2;1;1;2;1820;1;TRUE;0.574736842;679;2;1
eaee3e0502579afc7f8c8e7e561cc9b7;Nazarena;f;22;0;90;0,873750077664231;2,5;1004;412;60;375;1;0;2;0;1;2;1;1;3;1992;1;TRUE;0.790526316;703;2;1
eaee3e0502579afc7f8c8e7e561cc9b7;Nazarena;f;22;0;91;0,40175350503821;2,1;983,571,428,571,429;400,238,095,238,095;60;375;1;2;0;0;1;2;2;2;3;2048;1;FALSE;0.691578947;1303;2;0
eaee3e0502579afc7f8c8e7e561cc9b7;Nazarena;f;22;0;92;152,396,087,200,741;3;960;386,666,666,666,667;60;375;0;1;2;0;1;2;1;2;3;1593;1;TRUE;0.667368421;1088;2;1
eaee3e0502579afc7f8c8e7e561cc9b7;Nazarena;f;22;0;93;416,736,560,086,075;2,1;991,428,571,428,571;404,761,904,761,905;60;375;0;2;1;0;1;2;0;1;2;3455;2;FALSE;0.765263158;967;2;0
eaee3e0502579afc7f8c8e7e561cc9b7;Nazarena;f;22;0;94;29,603,004,752,796;2,1;991,428,571,428,571;404,761,904,761,905;60;375;2;0;1;0;1;2;2;1;3;2032;0;FALSE;0.576842105;870;2;0
eaee3e0502579afc7f8c8e7e561cc9b7;Nazarena;f;22;0;95;527,313,958,547,429;2,5;971;393;60;375;1;0;2;0;1;2;0;2;3;5391;0;TRUE;0.267368421;720;2;1
eaee3e0502579afc7f8c8e7e561cc9b7;Nazarena;f;22;0;96;30,926,140,920,211;2,1;983,571,428,571,429;400,238,095,238,095;60;375;2;0;1;0;1;2;0;2;2;2106;0;TRUE;0.351578947;768;2;1
eaee3e0502579afc7f8c8e7e561cc9b7;Nazarena;f;22;0;97;169,197,682,851,529;3;960;386,666,666,666,667;60;375;2;1;0;0;1;2;1;2;3;2320;1;TRUE;0.736842105;799;2;1
eaee3e0502579afc7f8c8e7e561cc9b7;Nazarena;f;22;0;98;195,626,435,705,502;2,5;1004;412;60;375;2;0;1;0;1;2;2;1;3;2818;2;TRUE;0.314736842;447;2;1
eaee3e0502579afc7f8c8e7e561cc9b7;Nazarena;f;22;0;99;119,890,592,853,878;3;1015;418,333,333,333,333;60;375;0;1;2;0;1;2;0;1;2;2410;0;TRUE;0.230526316;893;2;1
eaee3e0502579afc7f8c8e7e561cc9b7;Nazarena;f;22;0;100;372,770,741,780,266;2,5;1004;412;60;375;2;1;0;0;1;2;2;1;3;2878;1;FALSE;0.362105263;629;2;0
eaee3e0502579afc7f8c8e7e561cc9b7;Nazarena;f;22;0;101;253,202,975,500,916;2,5;971;393;60;375;0;2;1;0;1;2;2;2;2;4113;2;TRUE;0.489473684;974;2;1
eaee3e0502579afc7f8c8e7e561cc9b7;Nazarena;f;22;0;102;136,085,063,098,867;2,1;991,428,571,428,571;404,761,904,761,905;60;375;1;0;2;0;1;2;1;1;3;2151;1;TRUE;0.487368421;951;2;1
eaee3e0502579afc7f8c8e7e561cc9b7;Nazarena;f;22;0;103;380,365,436,596,745;2,1;983,571,428,571,429;400,238,095,238,095;60;375;2;1;0;0;1;2;1;2;2;2363;2;FALSE;0.301052632;1061;2;0
eaee3e0502579afc7f8c8e7e561cc9b7;Nazarena;f;22;0;104;345,374,595,852,116;2,1;991,428,571,428,571;404,761,904,761,905;60;375;1;0;2;0;1;2;1;1;3;2178;1;TRUE;0.382105263;1828;2;1
eaee3e0502579afc7f8c8e7e561cc9b7;Nazarena;f;22;0;105;153,311,213,587,625;2,1;991,428,571,428,571;404,761,904,761,905;60;375;2;0;1;0;1;2;2;1;2;3620;0;FALSE;0.168421053;918;2;0
eaee3e0502579afc7f8c8e7e561cc9b7;Nazarena;f;22;0;106;532,654,786,101,281;3;1015;418,333,333,333,333;60;375;2;1;0;0;1;2;2;1;3;2286;1;FALSE;0.391578947;558;2;0
eaee3e0502579afc7f8c8e7e561cc9b7;Nazarena;f;22;0;107;433,203,595,149,809;3;1015;418,333,333,333,333;60;375;2;0;1;0;1;2;2;1;3;2589;2;TRUE;0.523157895;709;2;1
eaee3e0502579afc7f8c8e7e561cc9b7;Nazarena;f;22;0;108;0,915216207040504;2,1;991,428,571,428,571;404,761,904,761,905;60;375;2;1;0;0;1;2;2;1;3;2434;2;TRUE;0.296842105;669;2;1
eaee3e0502579afc7f8c8e7e561cc9b7;Nazarena;f;22;0;109;0,484611723632836;2,5;971;393;60;375;1;2;0;0;1;2;2;2;3;3039;1;FALSE;0.6;616;2;0
eaee3e0502579afc7f8c8e7e561cc9b7;Nazarena;f;22;0;110;149,277,093,555,252;2,5;1004;412;60;375;1;2;0;0;1;2;1;1;2;2162;1;TRUE;0.545263158;967;2;1
eaee3e0502579afc7f8c8e7e561cc9b7;Nazarena;f;22;0;111;493,233,772,088,037;3;960;386,666,666,666,667;60;375;2;0;1;0;1;2;0;2;2;1922;0;TRUE;0.573684211;1015;2;1
eaee3e0502579afc7f8c8e7e561cc9b7;Nazarena;f;22;0;112;503,710,126,637,094;2,5;1004;412;60;375;0;2;1;0;1;2;0;1;3;1981;0;TRUE;0.413684211;463;2;1
eaee3e0502579afc7f8c8e7e561cc9b7;Nazarena;f;22;0;113;16,027,655,575,023;2,1;991,428,571,428,571;404,761,904,761,905;60;375;2;0;1;0;1;2;2;1;3;2413;0;FALSE;0.501052632;544;2;0
eaee3e0502579afc7f8c8e7e561cc9b7;Nazarena;f;22;0;114;207,400,670,355,261;2,1;983,571,428,571,429;400,238,095,238,095;60;375;0;2;1;0;1;2;2;2;2;2440;0;FALSE;0.608421053;679;2;0
eaee3e0502579afc7f8c8e7e561cc9b7;Nazarena;f;22;0;115;173,033,001,955,354;2,1;991,428,571,428,571;404,761,904,761,905;60;375;0;1;2;0;1;2;0;1;2;2277;1;FALSE;0.458947368;687;2;0
eaee3e0502579afc7f8c8e7e561cc9b7;Nazarena;f;22;0;116;0,355355555953645;2,1;983,571,428,571,429;400,238,095,238,095;60;375;1;0;2;0;1;2;0;2;2;1990;1;FALSE;0.589473684;887;2;0
eaee3e0502579afc7f8c8e7e561cc9b7;Nazarena;f;22;0;117;493,204,426,646,995;2,5;971;393;60;375;1;0;2;0;1;2;0;2;3;2197;1;FALSE;0.251578947;470;2;0
eaee3e0502579afc7f8c8e7e561cc9b7;Nazarena;f;22;0;118;288,461,926,556,144;2,5;1004;412;60;375;0;2;1;0;1;2;0;1;2;1866;0;TRUE;0.722105263;679;2;1
eaee3e0502579afc7f8c8e7e561cc9b7;Nazarena;f;22;0;119;493,419,318,358,684;2,5;971;393;60;375;2;1;0;0;1;2;1;2;2;1534;1;TRUE;0.805263158;646;2;1
eaee3e0502579afc7f8c8e7e561cc9b7;Nazarena;f;22;0;120;0,576020356131788;3;960;386,666,666,666,667;60;375;0;1;2;0;1;2;1;2;3;1938;1;TRUE;0.731578947;983;2;1
66202b0dbdda783e265d1a5d9f06290b;Melina;f;37;0;1;409,165,876,356,219;3;855;343,333,333,333,333;60;375;1;2;0;0;1;2;1;1;3;2265;1;TRUE;1;2501;3;1
66202b0dbdda783e265d1a5d9f06290b;Melina;f;37;0;2;478,544,357,264,623;2,5;811;318;60;375;2;1;0;0;1;2;1;2;3;2528;2;FALSE;1;1236;3;0
66202b0dbdda783e265d1a5d9f06290b;Melina;f;37;0;3;449,838,818,854,572;3;800;311,666,666,666,667;60;375;1;0;2;0;1;2;0;2;2;2712;0;TRUE;1;1286;3;1
66202b0dbdda783e265d1a5d9f06290b;Melina;f;37;0;4;339,558,864,773,853;2,5;844;337;60;375;1;2;0;0;1;2;1;1;2;2580;1;TRUE;1;887;3;1
66202b0dbdda783e265d1a5d9f06290b;Melina;f;37;0;5;290,895,776,364,307;2,1;823,571,428,571,429;325,238,095,238,095;60;375;2;0;1;0;1;2;0;2;2;5955;0;TRUE;1;1129;3;1
66202b0dbdda783e265d1a5d9f06290b;Melina;f;37;0;6;481,101,188,448,184;3;800;311,666,666,666,667;60;375;2;0;1;0;1;2;0;2;2;5117;2;FALSE;1;987;3;0
66202b0dbdda783e265d1a5d9f06290b;Melina;f;37;0;7;537,657,790,552,742;3;855;343,333,333,333,333;60;375;0;2;1;0;1;2;0;1;3;2402;0;TRUE;1;801;3;1
66202b0dbdda783e265d1a5d9f06290b;Melina;f;37;0;8;265,120,886,591,393;2,1;823,571,428,571,429;325,238,095,238,095;60;375;1;2;0;0;1;2;2;2;3;2672;2;TRUE;1;848;3;1
66202b0dbdda783e265d1a5d9f06290b;Melina;f;37;0;9;395,316,372,023,926;2,5;844;337;60;375;0;1;2;0;1;2;0;1;2;2107;0;TRUE;1;738;3;1
66202b0dbdda783e265d1a5d9f06290b;Melina;f;37;0;10;183,927,619,465,848;3;855;343,333,333,333,333;60;375;1;2;0;0;1;2;1;1;2;2741;2;FALSE;1;844;3;0
66202b0dbdda783e265d1a5d9f06290b;Melina;f;37;0;11;109,965,347,243,429;2,5;811;318;60;375;0;2;1;0;1;2;2;2;3;4639;2;TRUE;1;968;3;1
66202b0dbdda783e265d1a5d9f06290b;Melina;f;37;0;12;514,143,067,144,489;2,1;823,571,428,571,429;325,238,095,238,095;60;375;0;1;2;0;1;2;1;2;3;3166;1;TRUE;1;764;3;1
66202b0dbdda783e265d1a5d9f06290b;Melina;f;37;0;13;265,851,360,576,087;2,1;831,428,571,428,571;329,761,904,761,905;60;375;2;0;1;0;1;2;2;1;3;3934;2;TRUE;1;749;3;1
66202b0dbdda783e265d1a5d9f06290b;Melina;f;37;0;14;495,950,144,368,766;2,5;811;318;60;375;1;0;2;0;1;2;0;2;2;2526;1;FALSE;1;990;3;0
66202b0dbdda783e265d1a5d9f06290b;Melina;f;37;0;15;215,017,924,447,974;3;855;343,333,333,333,333;60;375;0;2;1;0;1;2;0;1;3;1972;0;TRUE;1;713;3;1
66202b0dbdda783e265d1a5d9f06290b;Melina;f;37;0;16;602,961,541,203,925;2,5;811;318;60;375;0;1;2;0;1;2;1;2;3;2216;1;TRUE;1;817;3;1
66202b0dbdda783e265d1a5d9f06290b;Melina;f;37;0;17;534,444,961,150,588;2,5;844;337;60;375;0;1;2;0;1;2;0;1;2;2696;1;FALSE;1;624;3;0
66202b0dbdda783e265d1a5d9f06290b;Melina;f;37;0;18;293,500,181,349,227;2,5;811;318;60;375;0;2;1;0;1;2;2;2;3;4167;0;FALSE;1;710;3;0
66202b0dbdda783e265d1a5d9f06290b;Melina;f;37;0;19;508,054,198,040,976;3;800;311,666,666,666,667;60;375;1;0;2;0;1;2;0;2;3;2617;0;TRUE;1;643;3;1
66202b0dbdda783e265d1a5d9f06290b;Melina;f;37;0;20;460,509,317,547,746;2,5;811;318;60;375;1;0;2;0;1;2;0;2;3;3026;1;FALSE;1;813;3;0
66202b0dbdda783e265d1a5d9f06290b;Melina;f;37;0;21;0,704757401826191;2,1;823,571,428,571,429;325,238,095,238,095;60;375;2;0;1;0;1;2;0;2;2;3546;2;FALSE;1;700;3;0
66202b0dbdda783e265d1a5d9f06290b;Melina;f;37;0;22;119,811,782,900,212;2,5;811;318;60;375;1;2;0;0;1;2;2;2;3;2382;2;TRUE;1;891;3;1
66202b0dbdda783e265d1a5d9f06290b;Melina;f;37;0;23;212,529,506,741,013;2,5;811;318;60;375;0;1;2;0;1;2;1;2;3;2422;1;TRUE;1;880;3;1
66202b0dbdda783e265d1a5d9f06290b;Melina;f;37;0;24;438,948,632,242,572;2,5;811;318;60;375;2;0;1;0;1;2;0;2;3;2913;0;TRUE;1;661;3;1
66202b0dbdda783e265d1a5d9f06290b;Melina;f;37;0;25;620,691,826,225,596;2,1;831,428,571,428,571;329,761,904,761,905;60;375;0;2;1;0;1;2;0;1;2;2937;2;FALSE;0.896202532;2052;3;0
66202b0dbdda783e265d1a5d9f06290b;Melina;f;37;0;26;531,962,415,770,293;3;855;343,333,333,333,333;60;375;2;0;1;0;1;2;2;1;3;2694;2;TRUE;1;590;3;1
66202b0dbdda783e265d1a5d9f06290b;Melina;f;37;0;27;164,927,919,494,312;2,1;823,571,428,571,429;325,238,095,238,095;60;375;1;0;2;0;1;2;0;2;2;2768;1;FALSE;0.903797468;5865;3;0
66202b0dbdda783e265d1a5d9f06290b;Melina;f;37;0;28;539,345,050,432,217;2,5;844;337;60;375;2;0;1;0;1;2;2;1;3;3607;2;TRUE;1;514;3;1
66202b0dbdda783e265d1a5d9f06290b;Melina;f;37;0;29;113,176,273,188,742;2,1;823,571,428,571,429;325,238,095,238,095;60;375;2;0;1;0;1;2;0;2;2;2595;2;FALSE;1;552;3;0
66202b0dbdda783e265d1a5d9f06290b;Melina;f;37;0;30;265,010,342,169,336;2,5;844;337;60;375;2;1;0;0;1;2;2;1;2;2434;2;TRUE;1;808;3;1
66202b0dbdda783e265d1a5d9f06290b;Melina;f;37;0;31;342,670,991,004,868;2,1;823,571,428,571,429;325,238,095,238,095;60;375;2;0;1;0;1;2;0;2;2;3044;2;FALSE;1;746;3;0
66202b0dbdda783e265d1a5d9f06290b;Melina;f;37;0;32;154,823,827,002,734;2,1;823,571,428,571,429;325,238,095,238,095;60;375;2;1;0;0;1;2;1;2;3;2729;1;TRUE;0.943037975;2324;3;1
66202b0dbdda783e265d1a5d9f06290b;Melina;f;37;0;33;153,148,932,385,008;2,5;844;337;60;375;2;0;1;0;1;2;2;1;2;2379;2;TRUE;1;525;3;1
66202b0dbdda783e265d1a5d9f06290b;Melina;f;37;0;34;489,401,549,393,931;2,5;844;337;60;375;0;1;2;0;1;2;0;1;3;3694;0;TRUE;0.93164557;1386;3;1
66202b0dbdda783e265d1a5d9f06290b;Melina;f;37;0;35;423,645,543,296,053;2,5;811;318;60;375;1;0;2;0;1;2;0;2;2;2363;0;TRUE;1;575;3;1
66202b0dbdda783e265d1a5d9f06290b;Melina;f;37;0;36;34,242,812,930,914;2,1;831,428,571,428,571;329,761,904,761,905;60;375;0;1;2;0;1;2;0;1;3;2475;0;TRUE;1;649;3;1
66202b0dbdda783e265d1a5d9f06290b;Melina;f;37;0;37;259,412,840,885,917;3;855;343,333,333,333,333;60;375;0;1;2;0;1;2;0;1;2;2666;0;TRUE;0.956962025;1110;3;1
66202b0dbdda783e265d1a5d9f06290b;Melina;f;37;0;38;31,082,448,207,507;2,1;831,428,571,428,571;329,761,904,761,905;60;375;2;1;0;0;1;2;2;1;3;2328;2;TRUE;1;970;3;1
66202b0dbdda783e265d1a5d9f06290b;Melina;f;37;0;39;625,851,936,085,174;3;855;343,333,333,333,333;60;375;0;1;2;0;1;2;0;1;3;2604;0;TRUE;1;550;3;1
66202b0dbdda783e265d1a5d9f06290b;Melina;f;37;0;40;549,813,752,245,797;2,1;831,428,571,428,571;329,761,904,761,905;60;375;0;1;2;0;1;2;0;1;3;3230;1;FALSE;0.958227848;1396;3;0
66202b0dbdda783e265d1a5d9f06290b;Melina;f;37;0;41;268,993,760,518,433;2,5;811;318;60;375;0;2;1;0;1;2;2;2;3;2129;2;TRUE;1;632;3;1
66202b0dbdda783e265d1a5d9f06290b;Melina;f;37;0;42;114,903,579,855,648;2,5;811;318;60;375;2;1;0;0;1;2;1;2;3;2673;1;TRUE;0.959493671;1092;3;1
66202b0dbdda783e265d1a5d9f06290b;Melina;f;37;0;43;195,858,312,366,841;3;800;311,666,666,666,667;60;375;1;2;0;0;1;2;2;2;3;2216;2;TRUE;1;692;3;1
66202b0dbdda783e265d1a5d9f06290b;Melina;f;37;0;44;27,859,775,670,807;3;800;311,666,666,666,667;60;375;1;0;2;0;1;2;0;2;2;2848;0;TRUE;1;632;3;1
66202b0dbdda783e265d1a5d9f06290b;Melina;f;37;0;45;406,913,547,101,511;3;855;343,333,333,333,333;60;375;1;2;0;0;1;2;1;1;2;5418;2;FALSE;0.955696203;1128;3;0
66202b0dbdda783e265d1a5d9f06290b;Melina;f;37;0;46;378,116,469,987,336;3;800;311,666,666,666,667;60;375;1;2;0;0;1;2;2;2;3;2338;2;TRUE;1;709;3;1
66202b0dbdda783e265d1a5d9f06290b;Melina;f;37;0;47;547,485,441,545,388;3;855;343,333,333,333,333;60;375;2;0;1;0;1;2;2;1;2;2438;2;TRUE;1;721;3;1
66202b0dbdda783e265d1a5d9f06290b;Melina;f;37;0;48;110,977,525,506,603;2,1;823,571,428,571,429;325,238,095,238,095;60;375;2;1;0;0;1;2;1;2;2;2284;2;FALSE;1;818;3;0
66202b0dbdda783e265d1a5d9f06290b;Melina;f;37;0;49;104,737,477,906,907;2,1;823,571,428,571,429;325,238,095,238,095;60;375;0;1;2;0;1;2;1;2;3;2712;1;TRUE;0.958227848;802;3;1
66202b0dbdda783e265d1a5d9f06290b;Melina;f;37;0;50;588,962,975,174,752;2,5;811;318;60;375;1;0;2;0;1;2;0;2;2;2699;0;TRUE;0.953164557;716;3;1
66202b0dbdda783e265d1a5d9f06290b;Melina;f;37;0;51;476,072,915,368,189;2,5;844;337;60;375;0;2;1;0;1;2;0;1;3;2245;0;TRUE;0.95443038;1101;3;1
66202b0dbdda783e265d1a5d9f06290b;Melina;f;37;0;52;0,604926611506965;2,1;823,571,428,571,429;325,238,095,238,095;60;375;1;0;2;0;1;2;0;2;3;2717;1;FALSE;0.948101266;1301;3;0
66202b0dbdda783e265d1a5d9f06290b;Melina;f;37;0;53;444,159,847,650,127;2,5;811;318;60;375;1;0;2;0;1;2;0;2;2;2298;0;TRUE;0.949367089;1326;3;1
66202b0dbdda783e265d1a5d9f06290b;Melina;f;37;0;54;0,776883039187829;2,1;823,571,428,571,429;325,238,095,238,095;60;375;0;2;1;0;1;2;2;2;3;2195;2;TRUE;1;567;3;1
66202b0dbdda783e265d1a5d9f06290b;Melina;f;37;0;55;176,627,246,518,045;2,1;823,571,428,571,429;325,238,095,238,095;60;375;2;1;0;0;1;2;1;2;3;2419;1;TRUE;0.941772152;1442;3;1
66202b0dbdda783e265d1a5d9f06290b;Melina;f;37;0;56;593,013,529,900,319;2,5;811;318;60;375;2;1;0;0;1;2;1;2;2;2203;2;FALSE;0.975949367;2223;3;0
66202b0dbdda783e265d1a5d9f06290b;Melina;f;37;0;57;368,148,833,572,025;2,1;831,428,571,428,571;329,761,904,761,905;60;375;2;0;1;0;1;2;2;1;3;2613;0;FALSE;0.969620253;850;3;0
66202b0dbdda783e265d1a5d9f06290b;Melina;f;37;0;58;116,516,882,266,381;2,1;823,571,428,571,429;325,238,095,238,095;60;375;2;0;1;0;1;2;0;2;3;4265;2;FALSE;1;624;3;0
66202b0dbdda783e265d1a5d9f06290b;Melina;f;37;0;59;460,921,917,249,626;3;855;343,333,333,333,333;60;375;0;1;2;0;1;2;0;1;2;2204;0;TRUE;1;517;3;1
66202b0dbdda783e265d1a5d9f06290b;Melina;f;37;0;60;294,069,858,245,614;2,1;831,428,571,428,571;329,761,904,761,905;60;375;2;1;0;0;1;2;2;1;2;2272;2;TRUE;1;556;3;1
66202b0dbdda783e265d1a5d9f06290b;Melina;f;37;0;61;310,430,236,529,993;2,1;823,571,428,571,429;325,238,095,238,095;60;375;1;2;0;0;1;2;2;2;2;2540;2;TRUE;1;720;3;1
66202b0dbdda783e265d1a5d9f06290b;Melina;f;37;0;62;151,835,986,239,726;3;855;343,333,333,333,333;60;375;1;0;2;0;1;2;1;1;2;2426;0;FALSE;0.972151899;874;3;0
66202b0dbdda783e265d1a5d9f06290b;Melina;f;37;0;63;176,696,833,310,497;3;855;343,333,333,333,333;60;375;2;0;1;0;1;2;2;1;2;2174;2;TRUE;0.975949367;1253;3;1
66202b0dbdda783e265d1a5d9f06290b;Melina;f;37;0;64;0,0515079475386175;2,1;823,571,428,571,429;325,238,095,238,095;60;375;1;0;2;0;1;2;0;2;2;2326;1;FALSE;1;478;3;0
66202b0dbdda783e265d1a5d9f06290b;Melina;f;37;0;65;355,013,319,208,614;3;855;343,333,333,333,333;60;375;2;0;1;0;1;2;2;1;2;2221;2;TRUE;1;1664;3;1
66202b0dbdda783e265d1a5d9f06290b;Melina;f;37;0;66;239,917,592,859,594;2,5;811;318;60;375;1;0;2;0;1;2;0;2;3;2040;0;TRUE;1;453;3;1
66202b0dbdda783e265d1a5d9f06290b;Melina;f;37;0;67;601,437,270,270,727;3;855;343,333,333,333,333;60;375;1;2;0;0;1;2;1;1;3;3307;1;TRUE;1;415;3;1
66202b0dbdda783e265d1a5d9f06290b;Melina;f;37;0;68;364,720,230,590,309;2,1;831,428,571,428,571;329,761,904,761,905;60;375;1;0;2;0;1;2;1;1;2;2519;0;FALSE;1;655;3;0
66202b0dbdda783e265d1a5d9f06290b;Melina;f;37;0;69;235,130,002,754,336;3;855;343,333,333,333,333;60;375;0;1;2;0;1;2;0;1;2;3923;0;TRUE;1;644;3;1
66202b0dbdda783e265d1a5d9f06290b;Melina;f;37;0;70;287,477,376,046,154;2,1;823,571,428,571,429;325,238,095,238,095;60;375;2;1;0;0;1;2;1;2;2;2484;2;FALSE;0.997468354;913;3;0
66202b0dbdda783e265d1a5d9f06290b;Melina;f;37;0;71;0,94124102181487;2,1;831,428,571,428,571;329,761,904,761,905;60;375;0;1;2;0;1;2;0;1;2;2439;1;FALSE;1;746;3;0
66202b0dbdda783e265d1a5d9f06290b;Melina;f;37;0;72;581,915,721,974,357;2,1;823,571,428,571,429;325,238,095,238,095;60;375;2;1;0;0;1;2;1;2;3;2265;1;TRUE;1;650;3;1
66202b0dbdda783e265d1a5d9f06290b;Melina;f;37;0;73;0,107135830516631;2,5;844;337;60;375;2;1;0;0;1;2;2;1;2;1898;2;TRUE;1;576;3;1
66202b0dbdda783e265d1a5d9f06290b;Melina;f;37;0;74;417,874,368,452,777;2,5;844;337;60;375;0;1;2;0;1;2;0;1;3;2219;0;TRUE;1;589;3;1
66202b0dbdda783e265d1a5d9f06290b;Melina;f;37;0;75;381,076,897,199,052;3;855;343,333,333,333,333;60;375;1;0;2;0;1;2;1;1;3;2690;0;FALSE;0.956962025;1376;3;0
66202b0dbdda783e265d1a5d9f06290b;Melina;f;37;0;76;20,641,238,827,443;3;800;311,666,666,666,667;60;375;2;0;1;0;1;2;0;2;2;1871;0;TRUE;1;481;3;1
66202b0dbdda783e265d1a5d9f06290b;Melina;f;37;0;77;525,685,919,270,804;3;855;343,333,333,333,333;60;375;0;2;1;0;1;2;0;1;2;2549;2;FALSE;0.953164557;1257;3;0
66202b0dbdda783e265d1a5d9f06290b;Melina;f;37;0;78;155,105,029,835,882;2,5;811;318;60;375;0;1;2;0;1;2;1;2;3;2442;1;TRUE;0.949367089;991;3;1
66202b0dbdda783e265d1a5d9f06290b;Melina;f;37;0;79;245,375,795,097,046;3;800;311,666,666,666,667;60;375;1;2;0;0;1;2;2;2;2;1877;2;TRUE;1;536;3;1
66202b0dbdda783e265d1a5d9f06290b;Melina;f;37;0;80;411,947,590,186,632;2,1;831,428,571,428,571;329,761,904,761,905;60;375;0;1;2;0;1;2;0;1;2;2570;1;FALSE;0.951898734;1840;3;0
66202b0dbdda783e265d1a5d9f06290b;Melina;f;37;0;81;264,495,041,630,264;2,5;811;318;60;375;0;2;1;0;1;2;2;2;3;2908;0;FALSE;0.94556962;1195;3;0
66202b0dbdda783e265d1a5d9f06290b;Melina;f;37;0;82;498,420,846,217,556;2,5;811;318;60;375;0;2;1;0;1;2;2;2;3;2757;0;FALSE;0.949367089;1733;3;0
66202b0dbdda783e265d1a5d9f06290b;Melina;f;37;0;83;115,835,170,935,554;2,1;831,428,571,428,571;329,761,904,761,905;60;375;0;2;1;0;1;2;0;1;3;2913;2;FALSE;1;662;3;0
66202b0dbdda783e265d1a5d9f06290b;Melina;f;37;0;84;172,474,363,334,744;3;855;343,333,333,333,333;60;375;0;2;1;0;1;2;0;1;3;2167;0;TRUE;1;703;3;1
66202b0dbdda783e265d1a5d9f06290b;Melina;f;37;0;85;412,907,971,024,845;2,5;844;337;60;375;2;1;0;0;1;2;2;1;2;2213;2;TRUE;1;609;3;1
66202b0dbdda783e265d1a5d9f06290b;Melina;f;37;0;86;436,590,433,676,582;3;855;343,333,333,333,333;60;375;0;2;1;0;1;2;0;1;3;2172;0;TRUE;1;457;3;1
66202b0dbdda783e265d1a5d9f06290b;Melina;f;37;0;87;557,275,735,662,058;2,1;831,428,571,428,571;329,761,904,761,905;60;375;2;0;1;0;1;2;2;1;2;2737;0;FALSE;0.967088608;1820;3;0
66202b0dbdda783e265d1a5d9f06290b;Melina;f;37;0;88;137,005,171,688,623;3;855;343,333,333,333,333;60;375;2;0;1;0;1;2;2;1;2;2126;2;TRUE;1;757;3;1
66202b0dbdda783e265d1a5d9f06290b;Melina;f;37;0;89;279,577,269,862,596;2,1;823,571,428,571,429;325,238,095,238,095;60;375;2;1;0;0;1;2;1;2;2;2045;2;FALSE;1;573;3;0
66202b0dbdda783e265d1a5d9f06290b;Melina;f;37;0;90;565,614,727,591,804;2,5;811;318;60;375;1;0;2;0;1;2;0;2;3;2881;0;TRUE;0.983544304;1390;3;1
66202b0dbdda783e265d1a5d9f06290b;Melina;f;37;0;91;156,899,347,182,951;3;855;343,333,333,333,333;60;375;1;2;0;0;1;2;1;1;2;1841;1;TRUE;1;446;3;1
66202b0dbdda783e265d1a5d9f06290b;Melina;f;37;0;92;508,102,767,946,446;2,1;823,571,428,571,429;325,238,095,238,095;60;375;2;1;0;0;1;2;1;2;2;2161;1;TRUE;0.998734177;902;3;1
66202b0dbdda783e265d1a5d9f06290b;Melina;f;37;0;93;60,300,807,745,743;2,1;823,571,428,571,429;325,238,095,238,095;60;375;1;2;0;0;1;2;2;2;3;3042;1;FALSE;0.96835443;842;3;0
66202b0dbdda783e265d1a5d9f06290b;Melina;f;37;0;94;301,876,022,719,649;2,5;811;318;60;375;0;1;2;0;1;2;1;2;2;2217;1;TRUE;0.970886076;1528;3;1
66202b0dbdda783e265d1a5d9f06290b;Melina;f;37;0;95;0,677048043502049;2,1;823,571,428,571,429;325,238,095,238,095;60;375;2;1;0;0;1;2;1;2;2;3340;2;FALSE;1;511;3;0
66202b0dbdda783e265d1a5d9f06290b;Melina;f;37;0;96;0,985102544590341;3;855;343,333,333,333,333;60;375;1;0;2;0;1;2;1;1;3;2024;1;TRUE;1;496;3;1
66202b0dbdda783e265d1a5d9f06290b;Melina;f;37;0;97;0,0641014814143714;3;800;311,666,666,666,667;60;375;0;2;1;0;1;2;2;2;2;2613;2;TRUE;1;476;3;1
66202b0dbdda783e265d1a5d9f06290b;Melina;f;37;0;98;557,153,838,766,307;3;855;343,333,333,333,333;60;375;1;2;0;0;1;2;1;1;3;3808;2;FALSE;0.96835443;1139;3;0
66202b0dbdda783e265d1a5d9f06290b;Melina;f;37;0;99;322,647,393,013,685;3;800;311,666,666,666,667;60;375;2;0;1;0;1;2;0;2;3;2350;2;FALSE;0.974683544;1066;3;0
66202b0dbdda783e265d1a5d9f06290b;Melina;f;37;0;100;361,946,057,600,361;3;855;343,333,333,333,333;60;375;2;1;0;0;1;2;2;1;2;2417;2;TRUE;1;927;3;1
66202b0dbdda783e265d1a5d9f06290b;Melina;f;37;0;101;32,576,072,370,767;2,5;811;318;60;375;2;1;0;0;1;2;1;2;2;2920;2;FALSE;0.963291139;1419;3;0
66202b0dbdda783e265d1a5d9f06290b;Melina;f;37;0;102;216,847,469,892,053;2,1;823,571,428,571,429;325,238,095,238,095;60;375;0;2;1;0;1;2;2;2;2;2292;0;FALSE;0.963291139;1860;3;0
66202b0dbdda783e265d1a5d9f06290b;Melina;f;37;0;103;0,690933902204925;3;800;311,666,666,666,667;60;375;2;0;1;0;1;2;0;2;2;2289;0;TRUE;0.987341772;1117;3;1
66202b0dbdda783e265d1a5d9f06290b;Melina;f;37;0;104;282,210,053,565,529;2,5;844;337;60;375;1;0;2;0;1;2;1;1;3;2020;1;TRUE;1;447;3;1
66202b0dbdda783e265d1a5d9f06290b;Melina;f;37;0;105;169,757,143,689,956;3;800;311,666,666,666,667;60;375;2;0;1;0;1;2;0;2;3;2314;2;FALSE;1;604;3;0
66202b0dbdda783e265d1a5d9f06290b;Melina;f;37;0;106;418,863,610,811,891;2,5;844;337;60;375;0;2;1;0;1;2;0;1;2;2405;2;FALSE;0.965822785;1054;3;0
66202b0dbdda783e265d1a5d9f06290b;Melina;f;37;0;107;0,0977665470363105;3;800;311,666,666,666,667;60;375;0;1;2;0;1;2;1;2;3;2148;1;TRUE;1;466;3;1
66202b0dbdda783e265d1a5d9f06290b;Melina;f;37;0;108;372,074,615,825,354;2,1;823,571,428,571,429;325,238,095,238,095;60;375;1;2;0;0;1;2;2;2;3;2298;1;FALSE;1;421;3;0
66202b0dbdda783e265d1a5d9f06290b;Melina;f;37;0;109;0,203969555783365;2,1;831,428,571,428,571;329,761,904,761,905;60;375;2;0;1;0;1;2;2;1;3;3523;2;TRUE;1;774;3;1
66202b0dbdda783e265d1a5d9f06290b;Melina;f;37;0;110;363,526,516,444,259;3;855;343,333,333,333,333;60;375;0;1;2;0;1;2;0;1;3;2307;0;TRUE;1;454;3;1
66202b0dbdda783e265d1a5d9f06290b;Melina;f;37;0;111;23,387,425,855,627;2,1;831,428,571,428,571;329,761,904,761,905;60;375;2;1;0;0;1;2;2;1;3;2062;2;TRUE;1;500;3;1
66202b0dbdda783e265d1a5d9f06290b;Melina;f;37;0;112;581,995,507,087,923;2,5;811;318;60;375;0;1;2;0;1;2;1;2;2;2157;1;TRUE;0.979746835;1011;3;1
66202b0dbdda783e265d1a5d9f06290b;Melina;f;37;0;113;188,738,082,148,641;3;855;343,333,333,333,333;60;375;1;2;0;0;1;2;1;1;3;2158;1;TRUE;0.997468354;1411;3;1
66202b0dbdda783e265d1a5d9f06290b;Melina;f;37;0;114;357,343,324,163,759;2,1;831,428,571,428,571;329,761,904,761,905;60;375;2;0;1;0;1;2;2;1;2;2126;2;TRUE;0.973417722;987;3;1
66202b0dbdda783e265d1a5d9f06290b;Melina;f;37;0;115;0,251945606218765;2,1;823,571,428,571,429;325,238,095,238,095;60;375;2;0;1;0;1;2;0;2;3;2203;0;TRUE;0.984810127;2300;3;1
66202b0dbdda783e265d1a5d9f06290b;Melina;f;37;0;116;615,578,851,334,054;2,5;811;318;60;375;0;1;2;0;1;2;1;2;2;2369;1;TRUE;1;528;3;1
66202b0dbdda783e265d1a5d9f06290b;Melina;f;37;0;117;0,658014795019899;2,5;811;318;60;375;1;0;2;0;1;2;0;2;2;1932;0;TRUE;1;491;3;1
66202b0dbdda783e265d1a5d9f06290b;Melina;f;37;0;118;594,759,317,839,521;2,5;811;318;60;375;1;2;0;0;1;2;2;2;2;3548;2;TRUE;0.97721519;2419;3;1
66202b0dbdda783e265d1a5d9f06290b;Melina;f;37;0;119;371,742,361,589,602;2,5;844;337;60;375;2;0;1;0;1;2;2;1;2;2276;0;FALSE;0.981012658;1965;3;0
66202b0dbdda783e265d1a5d9f06290b;Melina;f;37;0;120;0,73334930970587;3;855;343,333,333,333,333;60;375;0;1;2;0;1;2;0;1;3;2231;0;TRUE;1;442;3;1
05b09cbd8014b761e3ace3e199890bbd;Francina;f;21;0;1;380,963,972,492,967;2,5;727;282;60;375;0;2;1;0;1;2;0;1;3;2679;0;TRUE;0.866468843;1849;4;1
05b09cbd8014b761e3ace3e199890bbd;Francina;f;21;0;2;458,032,996,132,786;2,5;694;263;60;375;2;0;1;0;1;2;0;2;2;2437;0;TRUE;0.887240356;1694;4;1
05b09cbd8014b761e3ace3e199890bbd;Francina;f;21;0;3;171,505,833,110,303;3;738;288,333,333,333,333;60;375;2;1;0;0;1;2;2;1;3;2342;2;TRUE;0.660237389;1445;4;1
05b09cbd8014b761e3ace3e199890bbd;Francina;f;21;0;4;0,36627593276911;2,5;727;282;60;375;2;1;0;0;1;2;2;1;3;3761;2;TRUE;0.336795252;2457;4;1
05b09cbd8014b761e3ace3e199890bbd;Francina;f;21;0;5;449,628,478,050,364;2,5;694;263;60;375;2;1;0;0;1;2;1;2;3;3659;1;TRUE;0.5;1295;4;1
05b09cbd8014b761e3ace3e199890bbd;Francina;f;21;0;6;310,006,852,337,927;3;738;288,333,333,333,333;60;375;1;2;0;0;1;2;1;1;2;5956;1;TRUE;0.618694362;1594;4;1
05b09cbd8014b761e3ace3e199890bbd;Francina;f;21;0;7;243,653,627,047,288;2,5;694;263;60;375;1;0;2;0;1;2;0;2;2;6752;0;TRUE;0.400593472;1727;4;1
05b09cbd8014b761e3ace3e199890bbd;Francina;f;21;0;8;148,467,733,029,313;2,5;727;282;60;375;1;0;2;0;1;2;1;1;3;7739;1;TRUE;0.738872404;1431;4;1
05b09cbd8014b761e3ace3e199890bbd;Francina;f;21;0;9;444,516,506,907,642;2,5;727;282;60;375;1;0;2;0;1;2;1;1;3;2577;1;TRUE;0.614243323;1061;4;1
05b09cbd8014b761e3ace3e199890bbd;Francina;f;21;0;10;121,308,833,598,648;3;683;256,666,666,666,667;60;375;0;2;1;0;1;2;2;2;3;3045;2;TRUE;0.495548961;1425;4;1
05b09cbd8014b761e3ace3e199890bbd;Francina;f;21;0;11;256,173,406,445,143;3;683;256,666,666,666,667;60;375;0;2;1;0;1;2;2;2;2;5159;2;TRUE;0.817507418;2329;4;1
05b09cbd8014b761e3ace3e199890bbd;Francina;f;21;0;12;132,118,745,702,299;2,1;706,571,428,571,429;270,238,095,238,095;60;375;0;1;2;0;1;2;1;2;2;6223;1;TRUE;0.335311573;4910;4;1
05b09cbd8014b761e3ace3e199890bbd;Francina;f;21;0;13;579,045,318,428,093;2,5;727;282;60;375;2;0;1;0;1;2;2;1;2;3058;2;TRUE;0.704747774;1935;4;1
05b09cbd8014b761e3ace3e199890bbd;Francina;f;21;0;14;184,142,611,125,887;2,1;714,428,571,428,571;274,761,904,761,905;60;375;0;2;1;0;1;2;0;1;2;2887;0;TRUE;0.639465875;2371;4;1
05b09cbd8014b761e3ace3e199890bbd;Francina;f;21;0;15;101,808,217,770,442;3;738;288,333,333,333,333;60;375;0;1;2;0;1;2;0;1;3;3058;0;TRUE;0.53264095;3055;4;1
05b09cbd8014b761e3ace3e199890bbd;Francina;f;21;0;16;517,039,015,817,104;2,5;694;263;60;375;0;2;1;0;1;2;2;2;2;2444;2;TRUE;0.801186944;3707;4;1
05b09cbd8014b761e3ace3e199890bbd;Francina;f;21;0;17;26,217,950,376,649;2,1;714,428,571,428,571;274,761,904,761,905;60;375;0;1;2;0;1;2;0;1;3;3727;1;FALSE;0.600890208;3468;4;0
05b09cbd8014b761e3ace3e199890bbd;Francina;f;21;0;18;483,285,579,277,924;2,5;694;263;60;375;2;1;0;0;1;2;1;2;3;2745;1;TRUE;0.49851632;2986;4;1
05b09cbd8014b761e3ace3e199890bbd;Francina;f;21;0;19;145,788,651,928,534;2,1;706,571,428,571,429;270,238,095,238,095;60;375;0;2;1;0;1;2;2;2;2;4388;2;TRUE;0.692878338;1696;4;1
05b09cbd8014b761e3ace3e199890bbd;Francina;f;21;0;20;306,543,979,755,422;2,1;714,428,571,428,571;274,761,904,761,905;60;375;2;1;0;0;1;2;2;1;3;3433;2;TRUE;0.21958457;1406;4;1
05b09cbd8014b761e3ace3e199890bbd;Francina;f;21;0;21;270,244,188,342,572;2,5;694;263;60;375;1;0;2;0;1;2;0;2;3;2539;0;TRUE;0.363501484;1258;4;1
05b09cbd8014b761e3ace3e199890bbd;Francina;f;21;0;22;189,333,569,668,184;2,1;706,571,428,571,429;270,238,095,238,095;60;375;1;0;2;0;1;2;0;2;2;2276;0;TRUE;0.621661721;1092;4;1
05b09cbd8014b761e3ace3e199890bbd;Francina;f;21;0;23;372,371,574,431,532;2,5;694;263;60;375;0;1;2;0;1;2;1;2;2;2925;1;TRUE;0.510385757;881;4;1
05b09cbd8014b761e3ace3e199890bbd;Francina;f;21;0;24;105,070,721,057,643;2,1;706,571,428,571,429;270,238,095,238,095;60;375;2;0;1;0;1;2;0;2;2;2545;0;TRUE;0.394658754;1532;4;1
05b09cbd8014b761e3ace3e199890bbd;Francina;f;21;0;25;269,249,693,261,127;3;738;288,333,333,333,333;60;375;0;1;2;0;1;2;0;1;2;2723;1;FALSE;0.387240356;1582;4;0
05b09cbd8014b761e3ace3e199890bbd;Francina;f;21;0;26;204,935,721,666,214;2,5;694;263;60;375;1;2;0;0;1;2;2;2;2;5590;1;FALSE;0.097922849;2741;4;0
05b09cbd8014b761e3ace3e199890bbd;Francina;f;21;0;27;169,029,255,425,331;3;683;256,666,666,666,667;60;375;1;2;0;0;1;2;2;2;3;3408;2;TRUE;0.772997033;2343;4;1
05b09cbd8014b761e3ace3e199890bbd;Francina;f;21;0;28;226,489,044,058,635;3;738;288,333,333,333,333;60;375;1;0;2;0;1;2;1;1;3;3607;1;TRUE;0.716617211;1231;4;1
05b09cbd8014b761e3ace3e199890bbd;Francina;f;21;0;29;333,824,318,781,462;3;683;256,666,666,666,667;60;375;1;0;2;0;1;2;0;2;3;2448;0;TRUE;0.820474777;1121;4;1
05b09cbd8014b761e3ace3e199890bbd;Francina;f;21;0;30;313,254,080,996,351;3;683;256,666,666,666,667;60;375;0;1;2;0;1;2;1;2;2;2277;1;TRUE;1;879;4;1
05b09cbd8014b761e3ace3e199890bbd;Francina;f;21;0;31;132,156,582,571,186;2,1;714,428,571,428,571;274,761,904,761,905;60;375;1;2;0;0;1;2;1;1;3;4376;1;TRUE;0.321958457;1242;4;1
05b09cbd8014b761e3ace3e199890bbd;Francina;f;21;0;32;149,510,559,525,101;3;738;288,333,333,333,333;60;375;1;0;2;0;1;2;1;1;2;2747;1;TRUE;0.81305638;961;4;1
05b09cbd8014b761e3ace3e199890bbd;Francina;f;21;0;33;140,452,304,837,235;3;738;288,333,333,333,333;60;375;0;1;2;0;1;2;0;1;3;2494;0;TRUE;0.724035608;1670;4;1
05b09cbd8014b761e3ace3e199890bbd;Francina;f;21;0;34;0,891077256338496;3;683;256,666,666,666,667;60;375;2;0;1;0;1;2;0;2;2;4773;0;TRUE;0.946587537;1896;4;1
05b09cbd8014b761e3ace3e199890bbd;Francina;f;21;0;35;613,460,182,470,477;2,5;694;263;60;375;1;0;2;0;1;2;0;2;2;2777;0;TRUE;0.589020772;2735;4;1
05b09cbd8014b761e3ace3e199890bbd;Francina;f;21;0;36;0,88780084623337;2,5;727;282;60;375;2;0;1;0;1;2;2;1;3;2411;2;TRUE;0.554896142;2115;4;1
05b09cbd8014b761e3ace3e199890bbd;Francina;f;21;0;37;224,141,247,756,569;3;738;288,333,333,333,333;60;375;2;1;0;0;1;2;2;1;3;2376;2;TRUE;0.575667656;2496;4;1
05b09cbd8014b761e3ace3e199890bbd;Francina;f;21;0;38;46,446,382,049,704;2,1;706,571,428,571,429;270,238,095,238,095;60;375;1;2;0;0;1;2;2;2;2;2311;1;FALSE;0.591988131;1111;4;0
05b09cbd8014b761e3ace3e199890bbd;Francina;f;21;0;39;423,477,762,848,102;2,5;694;263;60;375;0;2;1;0;1;2;2;2;2;2395;2;TRUE;0.419881306;1760;4;1
05b09cbd8014b761e3ace3e199890bbd;Francina;f;21;0;40;576,394,967,751,555;3;683;256,666,666,666,667;60;375;2;1;0;0;1;2;1;2;2;2535;1;TRUE;0.774480712;1017;4;1
05b09cbd8014b761e3ace3e199890bbd;Francina;f;21;0;41;0,0391869365664568;2,1;706,571,428,571,429;270,238,095,238,095;60;375;0;2;1;0;1;2;2;2;3;2425;2;TRUE;0.600890208;2081;4;1
05b09cbd8014b761e3ace3e199890bbd;Francina;f;21;0;42;198,329,339,917,647;3;683;256,666,666,666,667;60;375;1;2;0;0;1;2;2;2;3;2262;2;TRUE;0.698813056;1785;4;1
05b09cbd8014b761e3ace3e199890bbd;Francina;f;21;0;43;208,725,377,159,953;3;683;256,666,666,666,667;60;375;0;1;2;0;1;2;1;2;2;2274;1;TRUE;0.869436202;1817;4;1
05b09cbd8014b761e3ace3e199890bbd;Francina;f;21;0;44;16,942,946,232,026;3;738;288,333,333,333,333;60;375;2;1;0;0;1;2;2;1;2;3202;2;TRUE;0.399109792;2826;4;1
05b09cbd8014b761e3ace3e199890bbd;Francina;f;21;0;45;607,848,273,301,107;2,5;727;282;60;375;0;1;2;0;1;2;0;1;2;5557;0;TRUE;0.795252226;1509;4;1
05b09cbd8014b761e3ace3e199890bbd;Francina;f;21;0;46;283,546,679,381,988;2,1;714,428,571,428,571;274,761,904,761,905;60;375;1;0;2;0;1;2;1;1;3;2461;1;TRUE;0.640949555;1329;4;1
05b09cbd8014b761e3ace3e199890bbd;Francina;f;21;0;47;325,424,569,167,436;3;738;288,333,333,333,333;60;375;1;2;0;0;1;2;1;1;2;2991;1;TRUE;0.753709199;2209;4;1
05b09cbd8014b761e3ace3e199890bbd;Francina;f;21;0;48;320,293,910,886,456;3;683;256,666,666,666,667;60;375;1;2;0;0;1;2;2;2;2;3044;2;TRUE;0.725519288;1988;4;1
05b09cbd8014b761e3ace3e199890bbd;Francina;f;21;0;49;194,579,483,985,757;2,1;706,571,428,571,429;270,238,095,238,095;60;375;2;1;0;0;1;2;1;2;3;4843;1;TRUE;0.537091988;2276;4;1
05b09cbd8014b761e3ace3e199890bbd;Francina;f;21;0;50;11,194,130,303,441;2,5;694;263;60;375;0;1;2;0;1;2;1;2;3;3874;1;TRUE;0.640949555;1211;4;1
05b09cbd8014b761e3ace3e199890bbd;Francina;f;21;0;51;589,727,702,242,728;2,1;706,571,428,571,429;270,238,095,238,095;60;375;1;0;2;0;1;2;0;2;2;2791;1;FALSE;0.621661721;2394;4;0
05b09cbd8014b761e3ace3e199890bbd;Francina;f;21;0;52;336,138,803,720,572;2,5;694;263;60;375;2;0;1;0;1;2;0;2;2;3959;0;TRUE;0.50148368;1511;4;1
05b09cbd8014b761e3ace3e199890bbd;Francina;f;21;0;53;0,961866217298879;2,5;727;282;60;375;0;2;1;0;1;2;0;1;3;3074;0;TRUE;0.502967359;3323;4;1
05b09cbd8014b761e3ace3e199890bbd;Francina;f;21;0;54;479,196,792,608,714;3;738;288,333,333,333,333;60;375;2;1;0;0;1;2;2;1;2;2262;2;TRUE;0.636498516;5472;4;1
05b09cbd8014b761e3ace3e199890bbd;Francina;f;21;0;56;140,847,753,483,232;2,1;714,428,571,428,571;274,761,904,761,905;60;375;2;0;1;0;1;2;2;1;2;4575;0;FALSE;0.197329377;3722;4;0
05b09cbd8014b761e3ace3e199890bbd;Francina;f;21;0;57;109,906,861,536,713;2,1;714,428,571,428,571;274,761,904,761,905;60;375;2;1;0;0;1;2;2;1;2;2595;2;TRUE;0.495548961;5242;4;1
05b09cbd8014b761e3ace3e199890bbd;Francina;f;21;0;58;561,918,665,939,452;2,1;714,428,571,428,571;274,761,904,761,905;60;375;1;0;2;0;1;2;1;1;2;2964;1;TRUE;0.620178042;3428;4;1
05b09cbd8014b761e3ace3e199890bbd;Francina;f;21;0;59;204,475,449,393,391;2,5;727;282;60;375;1;2;0;0;1;2;1;1;2;2462;1;TRUE;0.550445104;2555;4;1
05b09cbd8014b761e3ace3e199890bbd;Francina;f;21;0;60;10,204,434,441,233;2,5;727;282;60;375;2;0;1;0;1;2;2;1;2;2158;2;TRUE;0.744807122;1050;4;1
05b09cbd8014b761e3ace3e199890bbd;Francina;f;21;0;61;151,680,272,604,002;2,5;694;263;60;375;1;2;0;0;1;2;2;2;3;4753;2;TRUE;0.704747774;1518;4;1
05b09cbd8014b761e3ace3e199890bbd;Francina;f;21;0;62;0,189269675235106;2,5;727;282;60;375;2;1;0;0;1;2;2;1;2;2676;2;TRUE;0.605341246;2002;4;1
05b09cbd8014b761e3ace3e199890bbd;Francina;f;21;0;63;134,091,904,909,423;2,5;694;263;60;375;2;1;0;0;1;2;1;2;3;2412;1;TRUE;0.728486647;1159;4;1
05b09cbd8014b761e3ace3e199890bbd;Francina;f;21;0;64;245,690,878,514,295;2,1;714,428,571,428,571;274,761,904,761,905;60;375;0;2;1;0;1;2;0;1;3;6427;2;FALSE;0.302670623;2032;4;0
05b09cbd8014b761e3ace3e199890bbd;Francina;f;21;0;65;118,463,741,007,859;2,5;694;263;60;375;2;1;0;0;1;2;1;2;3;2660;1;TRUE;0.771513353;2205;4;1
05b09cbd8014b761e3ace3e199890bbd;Francina;f;21;0;66;247,995,689,588,177;3;738;288,333,333,333,333;60;375;0;1;2;0;1;2;0;1;3;3077;1;FALSE;0.397626113;2521;4;0
05b09cbd8014b761e3ace3e199890bbd;Francina;f;21;0;67;624,534,044,296,798;2,5;727;282;60;375;2;0;1;0;1;2;2;1;2;2575;2;TRUE;0.584569733;1163;4;1
05b09cbd8014b761e3ace3e199890bbd;Francina;f;21;0;68;250,658,428,335,162;3;738;288,333,333,333,333;60;375;1;0;2;0;1;2;1;1;3;2359;1;TRUE;0.897626113;2842;4;1
05b09cbd8014b761e3ace3e199890bbd;Francina;f;21;0;69;487,798,035,160,369;2,5;694;263;60;375;2;0;1;0;1;2;0;2;2;2712;0;TRUE;0.798219585;3945;4;1
05b09cbd8014b761e3ace3e199890bbd;Francina;f;21;0;70;274,091,813,235,269;3;738;288,333,333,333,333;60;375;1;2;0;0;1;2;1;1;2;2129;1;TRUE;0.961424332;3443;4;1
05b09cbd8014b761e3ace3e199890bbd;Francina;f;21;0;71;125,549,378,717,747;2,1;706,571,428,571,429;270,238,095,238,095;60;375;0;1;2;0;1;2;1;2;3;3308;1;TRUE;0.49851632;3626;4;1
05b09cbd8014b761e3ace3e199890bbd;Francina;f;21;0;72;295,385,109,354,863;2,1;714,428,571,428,571;274,761,904,761,905;60;375;0;2;1;0;1;2;0;1;3;3708;0;TRUE;0.540059347;4241;4;1
05b09cbd8014b761e3ace3e199890bbd;Francina;f;21;0;73;470,283,601,116,877;3;683;256,666,666,666,667;60;375;2;0;1;0;1;2;0;2;3;4255;0;TRUE;0.761127596;1662;4;1
05b09cbd8014b761e3ace3e199890bbd;Francina;f;21;0;74;462,086,807,780,647;2,5;727;282;60;375;2;1;0;0;1;2;2;1;3;2677;1;FALSE;0.602373887;1029;4;0
05b09cbd8014b761e3ace3e199890bbd;Francina;f;21;0;75;205,073,188,100,368;3;738;288,333,333,333,333;60;375;2;1;0;0;1;2;2;1;2;3676;2;TRUE;0.602373887;1446;4;1
05b09cbd8014b761e3ace3e199890bbd;Francina;f;21;0;76;427,263,259,709,619;3;683;256,666,666,666,667;60;375;0;2;1;0;1;2;2;2;2;1976;2;TRUE;0.765578635;1614;4;1
05b09cbd8014b761e3ace3e199890bbd;Francina;f;21;0;77;0,587871942625197;2,5;727;282;60;375;1;0;2;0;1;2;1;1;3;2429;1;TRUE;0.770029674;2334;4;1
05b09cbd8014b761e3ace3e199890bbd;Francina;f;21;0;78;60,847,690,911,438;2,5;727;282;60;375;1;0;2;0;1;2;1;1;3;2691;1;TRUE;0.652818991;1826;4;1
05b09cbd8014b761e3ace3e199890bbd;Francina;f;21;0;79;432,740,613,738,505;3;738;288,333,333,333,333;60;375;0;2;1;0;1;2;0;1;3;1873;0;TRUE;0.700296736;988;4;1
05b09cbd8014b761e3ace3e199890bbd;Francina;f;21;0;80;0,567954125114317;3;738;288,333,333,333,333;60;375;2;0;1;0;1;2;2;1;3;2143;2;TRUE;0.71810089;1973;4;1
05b09cbd8014b761e3ace3e199890bbd;Francina;f;21;0;81;264,968,877,996,457;2,1;706,571,428,571,429;270,238,095,238,095;60;375;0;2;1;0;1;2;2;2;3;5141;2;TRUE;0.34421365;1913;4;1
05b09cbd8014b761e3ace3e199890bbd;Francina;f;21;0;82;463,630,524,797,047;2,5;694;263;60;375;0;1;2;0;1;2;1;2;2;3958;1;TRUE;0.462908012;2745;4;1
05b09cbd8014b761e3ace3e199890bbd;Francina;f;21;0;83;481,463,168,339,038;3;683;256,666,666,666,667;60;375;2;0;1;0;1;2;0;2;3;2010;0;TRUE;1;829;4;1
05b09cbd8014b761e3ace3e199890bbd;Francina;f;21;0;84;217,724,378,609,665;3;683;256,666,666,666,667;60;375;1;0;2;0;1;2;0;2;2;2757;0;TRUE;0.915430267;1480;4;1
05b09cbd8014b761e3ace3e199890bbd;Francina;f;21;0;85;159,838,659,801,808;3;683;256,666,666,666,667;60;375;1;2;0;0;1;2;2;2;2;2776;2;TRUE;0.452522255;1065;4;1
05b09cbd8014b761e3ace3e199890bbd;Francina;f;21;0;86;543,918,928,698,518;2,5;727;282;60;375;2;1;0;0;1;2;2;1;2;2726;2;TRUE;0.578635015;1310;4;1
05b09cbd8014b761e3ace3e199890bbd;Francina;f;21;0;87;13,563,368,542,973;2,5;694;263;60;375;1;2;0;0;1;2;2;2;3;2228;2;TRUE;0.71810089;1036;4;1
05b09cbd8014b761e3ace3e199890bbd;Francina;f;21;0;88;627,561,837,868,683;2,1;714,428,571,428,571;274,761,904,761,905;60;375;2;0;1;0;1;2;2;1;3;4473;2;TRUE;0.615727003;1699;4;1
05b09cbd8014b761e3ace3e199890bbd;Francina;f;21;0;89;591,512,265,963,453;2,1;714,428,571,428,571;274,761,904,761,905;60;375;2;1;0;0;1;2;2;1;3;5472;2;TRUE;0.21810089;966;4;1
05b09cbd8014b761e3ace3e199890bbd;Francina;f;21;0;90;276,564,424,069,922;2,1;714,428,571,428,571;274,761,904,761,905;60;375;1;2;0;0;1;2;1;1;2;2893;1;TRUE;0.332344214;2318;4;1
05b09cbd8014b761e3ace3e199890bbd;Francina;f;21;0;91;333,452,924,118,287;2,5;727;282;60;375;0;2;1;0;1;2;0;1;2;1978;0;TRUE;0.599406528;1312;4;1
05b09cbd8014b761e3ace3e199890bbd;Francina;f;21;0;92;359,943,301,625,321;3;738;288,333,333,333,333;60;375;0;2;1;0;1;2;0;1;2;1911;0;TRUE;0.709198813;2530;4;1
05b09cbd8014b761e3ace3e199890bbd;Francina;f;21;0;93;608,211,588,133,203;2,1;714,428,571,428,571;274,761,904,761,905;60;375;2;0;1;0;1;2;2;1;2;4374;0;FALSE;0.120178042;1840;4;0
05b09cbd8014b761e3ace3e199890bbd;Francina;f;21;0;94;0,475352179293954;2,1;714,428,571,428,571;274,761,904,761,905;60;375;0;1;2;0;1;2;0;1;3;2826;0;TRUE;0.360534125;1096;4;1
05b09cbd8014b761e3ace3e199890bbd;Francina;f;21;0;95;420,790,863,633,657;2,1;714,428,571,428,571;274,761,904,761,905;60;375;1;2;0;0;1;2;1;1;3;2793;1;TRUE;0.428783383;2143;4;1
05b09cbd8014b761e3ace3e199890bbd;Francina;f;21;0;96;429,827,370,221,505;2,1;714,428,571,428,571;274,761,904,761,905;60;375;2;0;1;0;1;2;2;1;3;2410;2;TRUE;0.572700297;1371;4;1
05b09cbd8014b761e3ace3e199890bbd;Francina;f;21;0;97;377,234,324,325,013;3;683;256,666,666,666,667;60;375;2;1;0;0;1;2;1;2;3;2388;1;TRUE;0.700296736;1929;4;1
05b09cbd8014b761e3ace3e199890bbd;Francina;f;21;0;98;155,791,169,426,294;2,1;714,428,571,428,571;274,761,904,761,905;60;375;0;1;2;0;1;2;0;1;3;3940;1;FALSE;0.21958457;1365;4;0
05b09cbd8014b761e3ace3e199890bbd;Francina;f;21;0;99;270,405,924,079,164;2,1;706,571,428,571,429;270,238,095,238,095;60;375;0;2;1;0;1;2;2;2;2;2689;2;TRUE;0.382789318;2848;4;1
05b09cbd8014b761e3ace3e199890bbd;Francina;f;21;0;100;464,790,016,903,622;2,1;706,571,428,571,429;270,238,095,238,095;60;375;0;2;1;0;1;2;2;2;3;5023;2;TRUE;0.397626113;2044;4;1
05b09cbd8014b761e3ace3e199890bbd;Francina;f;21;0;101;0,25545412615437;2,1;714,428,571,428,571;274,761,904,761,905;60;375;2;0;1;0;1;2;2;1;3;2810;0;FALSE;0.410979228;1105;4;0
05b09cbd8014b761e3ace3e199890bbd;Francina;f;21;0;102;487,982,946,214,138;2,1;714,428,571,428,571;274,761,904,761,905;60;375;1;2;0;0;1;2;1;1;2;2626;2;FALSE;0.410979228;2132;4;0
05b09cbd8014b761e3ace3e199890bbd;Francina;f;21;0;103;60,793,609,784,346;3;738;288,333,333,333,333;60;375;2;1;0;0;1;2;2;1;3;2525;2;TRUE;0.537091988;2508;4;1
05b09cbd8014b761e3ace3e199890bbd;Francina;f;21;0;104;42,903,433,099,758;3;738;288,333,333,333,333;60;375;1;0;2;0;1;2;1;1;2;4140;1;TRUE;0.777448071;2856;4;1
05b09cbd8014b761e3ace3e199890bbd;Francina;f;21;0;105;107,196,760,377,956;2,1;714,428,571,428,571;274,761,904,761,905;60;375;1;0;2;0;1;2;1;1;2;3674;1;TRUE;0.298219585;1838;4;1
05b09cbd8014b761e3ace3e199890bbd;Francina;f;21;0;106;127,212,725,065,509;2,1;714,428,571,428,571;274,761,904,761,905;60;375;2;0;1;0;1;2;2;1;2;2508;2;TRUE;0.412462908;2212;4;1
05b09cbd8014b761e3ace3e199890bbd;Francina;f;21;0;107;14,225,719,358,975;2,1;706,571,428,571,429;270,238,095,238,095;60;375;0;1;2;0;1;2;1;2;3;2902;1;TRUE;0.485163205;2815;4;1
05b09cbd8014b761e3ace3e199890bbd;Francina;f;21;0;108;256,843,345,247,121;2,1;706,571,428,571,429;270,238,095,238,095;60;375;2;0;1;0;1;2;0;2;2;5170;0;TRUE;0.307121662;3369;4;1
05b09cbd8014b761e3ace3e199890bbd;Francina;f;21;0;109;265,493,246,318,834;2,5;727;282;60;375;1;2;0;0;1;2;1;1;2;2260;1;TRUE;0.746290801;1448;4;1
05b09cbd8014b761e3ace3e199890bbd;Francina;f;21;0;110;167,306,469,997,094;2,1;706,571,428,571,429;270,238,095,238,095;60;375;2;0;1;0;1;2;0;2;2;3842;2;FALSE;0.284866469;1373;4;0
05b09cbd8014b761e3ace3e199890bbd;Francina;f;21;0;111;284,533,759,427,069;2,1;706,571,428,571,429;270,238,095,238,095;60;375;1;0;2;0;1;2;0;2;2;2859;0;TRUE;0.316023739;1193;4;1
05b09cbd8014b761e3ace3e199890bbd;Francina;f;21;0;112;166,113,629,650,499;3;683;256,666,666,666,667;60;375;1;0;2;0;1;2;0;2;2;3646;0;TRUE;0.470326409;1966;4;1
05b09cbd8014b761e3ace3e199890bbd;Francina;f;21;0;113;238,129,128,650,401;2,1;714,428,571,428,571;274,761,904,761,905;60;375;2;1;0;0;1;2;2;1;3;4292;1;FALSE;0.360534125;1491;4;0
05b09cbd8014b761e3ace3e199890bbd;Francina;f;21;0;114;178,586,044,816,238;2,5;694;263;60;375;1;2;0;0;1;2;2;2;3;3046;2;TRUE;0.367952522;1826;4;1
05b09cbd8014b761e3ace3e199890bbd;Francina;f;21;0;115;515,133,366,000,593;3;683;256,666,666,666,667;60;375;0;2;1;0;1;2;2;2;3;3609;2;TRUE;0.5;1182;4;1
05b09cbd8014b761e3ace3e199890bbd;Francina;f;21;0;116;520,258,556,166,296;3;683;256,666,666,666,667;60;375;1;2;0;0;1;2;2;2;3;2209;2;TRUE;0.666172107;1185;4;1
05b09cbd8014b761e3ace3e199890bbd;Francina;f;21;0;117;378,246,022,934,659;2,5;694;263;60;375;1;2;0;0;1;2;2;2;3;2009;2;TRUE;0.65578635;2166;4;1
05b09cbd8014b761e3ace3e199890bbd;Francina;f;21;0;118;345,812,664,521,065;2,5;694;263;60;375;1;2;0;0;1;2;2;2;3;2293;2;TRUE;0.660237389;1513;4;1
05b09cbd8014b761e3ace3e199890bbd;Francina;f;21;0;119;0,795193816253543;3;738;288,333,333,333,333;60;375;0;2;1;0;1;2;0;1;3;2227;0;TRUE;0.755192878;1699;4;1
05b09cbd8014b761e3ace3e199890bbd;Francina;f;21;0;120;301,729,742,042,999;2,5;694;263;60;375;0;2;1;0;1;2;2;2;2;3515;2;TRUE;0.504451039;6535;4;1
1f6c1040a7cf18ae7b41291be6db0a15;Michele Brambilla;m;33;0;1;0,212092370905283;3;738;288,333,333,333,333;60;375;0;1;2;0;1;2;0;1;3;8035;0;TRUE;0;2721;5;1
1f6c1040a7cf18ae7b41291be6db0a15;Michele Brambilla;m;33;0;2;106,444,055,310,601;3;738;288,333,333,333,333;60;375;0;2;1;0;1;2;0;1;2;2446;0;TRUE;0.49851632;4317;5;1
1f6c1040a7cf18ae7b41291be6db0a15;Michele Brambilla;m;33;0;3;494,471,173,714,912;2,1;706,571,428,571,429;270,238,095,238,095;60;375;2;1;0;0;1;2;1;2;3;2684;1;TRUE;0.502967359;8609;5;1
1f6c1040a7cf18ae7b41291be6db0a15;Michele Brambilla;m;33;0;4;619,961,679,538,262;3;683;256,666,666,666,667;60;375;2;1;0;0;1;2;1;2;3;2187;1;TRUE;0.799703264;3082;5;1
1f6c1040a7cf18ae7b41291be6db0a15;Michele Brambilla;m;33;0;5;192,160,603,688,607;2,1;706,571,428,571,429;270,238,095,238,095;60;375;1;0;2;0;1;2;0;2;2;4032;1;FALSE;0.504451039;3888;5;0
1f6c1040a7cf18ae7b41291be6db0a15;Michele Brambilla;m;33;0;6;405,066,976,901,104;3;738;288,333,333,333,333;60;375;1;0;2;0;1;2;1;1;3;2623;1;TRUE;0.50148368;7097;5;1
1f6c1040a7cf18ae7b41291be6db0a15;Michele Brambilla;m;33;0;7;261,843,306,936,984;2,1;706,571,428,571,429;270,238,095,238,095;60;375;2;1;0;0;1;2;1;2;3;2911;1;TRUE;0.504451039;5850;5;1
1f6c1040a7cf18ae7b41291be6db0a15;Michele Brambilla;m;33;0;8;625,694,465,133,917;3;738;288,333,333,333,333;60;375;1;0;2;0;1;2;1;1;3;2351;1;TRUE;0.50148368;3242;5;1
1f6c1040a7cf18ae7b41291be6db0a15;Michele Brambilla;m;33;0;9;607,086,715,377,229;2,5;694;263;60;375;2;1;0;0;1;2;1;2;2;2718;1;TRUE;0.49851632;3404;5;1
1f6c1040a7cf18ae7b41291be6db0a15;Michele Brambilla;m;33;0;10;621,287,406,762,031;2,5;694;263;60;375;1;2;0;0;1;2;2;2;3;2309;2;TRUE;0.400593472;4078;5;1
1f6c1040a7cf18ae7b41291be6db0a15;Michele Brambilla;m;33;0;11;250,121,464,586,215;2,5;694;263;60;375;0;1;2;0;1;2;1;2;2;2479;1;TRUE;0.50148368;2529;5;1
1f6c1040a7cf18ae7b41291be6db0a15;Michele Brambilla;m;33;0;12;225,340,005,174,413;2,5;694;263;60;375;1;2;0;0;1;2;2;2;3;2701;2;TRUE;0.502967359;5350;5;1
1f6c1040a7cf18ae7b41291be6db0a15;Michele Brambilla;m;33;0;13;258,633,437,116,966;2,1;714,428,571,428,571;274,761,904,761,905;60;375;0;1;2;0;1;2;0;1;3;2384;1;FALSE;0.50148368;4225;5;0
1f6c1040a7cf18ae7b41291be6db0a15;Michele Brambilla;m;33;0;14;226,260,628,027,026;2,1;706,571,428,571,429;270,238,095,238,095;60;375;1;2;0;0;1;2;2;2;3;4731;1;FALSE;0.5;1623;5;0
1f6c1040a7cf18ae7b41291be6db0a15;Michele Brambilla;m;33;0;15;236,830,182,749,986;2,5;694;263;60;375;2;1;0;0;1;2;1;2;3;2381;1;TRUE;0.602373887;3474;5;1
1f6c1040a7cf18ae7b41291be6db0a15;Michele Brambilla;m;33;0;16;0,30447062858679;2,1;706,571,428,571,429;270,238,095,238,095;60;375;0;2;1;0;1;2;2;2;2;3529;0;FALSE;0.5;2277;5;0
1f6c1040a7cf18ae7b41291be6db0a15;Michele Brambilla;m;33;0;17;597,017,854,814,198;2,5;694;263;60;375;1;0;2;0;1;2;0;2;3;2369;0;TRUE;0.502967359;3251;5;1
1f6c1040a7cf18ae7b41291be6db0a15;Michele Brambilla;m;33;0;18;343,040,610,669,686;2,1;714,428,571,428,571;274,761,904,761,905;60;375;0;1;2;0;1;2;0;1;3;4692;1;FALSE;0.397626113;2267;5;0
1f6c1040a7cf18ae7b41291be6db0a15;Michele Brambilla;m;33;0;19;454,921,846,914,788;3;683;256,666,666,666,667;60;375;0;1;2;0;1;2;1;2;3;2829;1;TRUE;0.697329377;2740;5;1
1f6c1040a7cf18ae7b41291be6db0a15;Michele Brambilla;m;33;0;20;219,011,410,564,334;3;683;256,666,666,666,667;60;375;2;0;1;0;1;2;0;2;3;2639;0;TRUE;0.5;2510;5;1
1f6c1040a7cf18ae7b41291be6db0a15;Michele Brambilla;m;33;0;21;202,236,792,527,119;2,5;694;263;60;375;1;0;2;0;1;2;0;2;3;3728;0;TRUE;0.504451039;2871;5;1
1f6c1040a7cf18ae7b41291be6db0a15;Michele Brambilla;m;33;0;22;107,056,071,997,649;3;738;288,333,333,333,333;60;375;2;0;1;0;1;2;2;1;3;2598;2;TRUE;0.703264095;2501;5;1
1f6c1040a7cf18ae7b41291be6db0a15;Michele Brambilla;m;33;0;23;544,306,384,509,777;3;738;288,333,333,333,333;60;375;2;0;1;0;1;2;2;1;2;3656;2;TRUE;0.700296736;3212;5;1
1f6c1040a7cf18ae7b41291be6db0a15;Michele Brambilla;m;33;0;24;483,380,933,777,416;2,1;714,428,571,428,571;274,761,904,761,905;60;375;1;0;2;0;1;2;1;1;2;2800;1;TRUE;0.50148368;2162;5;1
1f6c1040a7cf18ae7b41291be6db0a15;Michele Brambilla;m;33;0;25;0,86635543082034;3;738;288,333,333,333,333;60;375;1;0;2;0;1;2;1;1;2;5013;0;FALSE;0.495548961;2858;5;0
1f6c1040a7cf18ae7b41291be6db0a15;Michele Brambilla;m;33;0;26;530,830,569,068,294;2,1;714,428,571,428,571;274,761,904,761,905;60;375;0;2;1;0;1;2;0;1;3;3075;0;TRUE;0.49851632;1829;5;1
1f6c1040a7cf18ae7b41291be6db0a15;Michele Brambilla;m;33;0;27;225,073,691,514,927;2,1;706,571,428,571,429;270,238,095,238,095;60;375;1;0;2;0;1;2;0;2;3;4069;0;TRUE;0.5;4995;5;1
1f6c1040a7cf18ae7b41291be6db0a15;Michele Brambilla;m;33;0;28;458,073,103,081,938;2,5;694;263;60;375;2;0;1;0;1;2;0;2;3;2206;0;TRUE;0.703264095;5372;5;1
1f6c1040a7cf18ae7b41291be6db0a15;Michele Brambilla;m;33;0;29;0,968014117275027;2,1;714,428,571,428,571;274,761,904,761,905;60;375;2;0;1;0;1;2;2;1;2;3618;2;TRUE;0.700296736;5039;5;1
1f6c1040a7cf18ae7b41291be6db0a15;Michele Brambilla;m;33;0;30;406,595,917,767,708;2,5;694;263;60;375;1;0;2;0;1;2;0;2;3;2098;0;TRUE;0.799703264;1090;5;1
1f6c1040a7cf18ae7b41291be6db0a15;Michele Brambilla;m;33;0;31;0,206140292803207;2,1;714,428,571,428,571;274,761,904,761,905;60;375;1;2;0;0;1;2;1;1;3;2805;1;TRUE;0.50148368;3749;5;1
1f6c1040a7cf18ae7b41291be6db0a15;Michele Brambilla;m;33;0;32;165,653,056,279,931;3;683;256,666,666,666,667;60;375;2;0;1;0;1;2;0;2;3;2744;0;TRUE;0.801186944;4467;5;1
1f6c1040a7cf18ae7b41291be6db0a15;Michele Brambilla;m;33;0;33;312,601,848,661,652;3;738;288,333,333,333,333;60;375;2;1;0;0;1;2;2;1;2;4455;2;TRUE;0.504451039;4294;5;1
1f6c1040a7cf18ae7b41291be6db0a15;Michele Brambilla;m;33;0;34;455,875,630,826,017;3;738;288,333,333,333,333;60;375;2;0;1;0;1;2;2;1;3;2239;2;TRUE;0.504451039;2523;5;1
1f6c1040a7cf18ae7b41291be6db0a15;Michele Brambilla;m;33;0;35;423,521,336,578,177;3;683;256,666,666,666,667;60;375;1;2;0;0;1;2;2;2;2;2376;2;TRUE;0.504451039;2756;5;1
1f6c1040a7cf18ae7b41291be6db0a15;Michele Brambilla;m;33;0;36;418,773,928,867,308;3;738;288,333,333,333,333;60;375;2;1;0;0;1;2;2;1;2;2768;2;TRUE;0.5;3629;5;1
1f6c1040a7cf18ae7b41291be6db0a15;Michele Brambilla;m;33;0;37;0,28278026517463;3;738;288,333,333,333,333;60;375;1;2;0;0;1;2;1;1;3;3124;1;TRUE;0.802670623;2652;5;1
1f6c1040a7cf18ae7b41291be6db0a15;Michele Brambilla;m;33;0;38;304,118,628,285,754;2,5;694;263;60;375;0;1;2;0;1;2;1;2;2;2613;1;TRUE;0.802670623;4343;5;1
1f6c1040a7cf18ae7b41291be6db0a15;Michele Brambilla;m;33;0;39;133,429,905,690,687;2,1;714,428,571,428,571;274,761,904,761,905;60;375;1;0;2;0;1;2;1;1;2;2437;1;TRUE;0.701780415;3953;5;1
1f6c1040a7cf18ae7b41291be6db0a15;Michele Brambilla;m;33;0;40;317,736,782,516,211;3;683;256,666,666,666,667;60;375;1;0;2;0;1;2;0;2;2;2328;0;TRUE;0.701780415;4642;5;1
1f6c1040a7cf18ae7b41291be6db0a15;Michele Brambilla;m;33;0;41;26,641,833,581,213;2,1;714,428,571,428,571;274,761,904,761,905;60;375;0;1;2;0;1;2;0;1;2;3334;0;TRUE;0.402077151;2792;5;1
1f6c1040a7cf18ae7b41291be6db0a15;Michele Brambilla;m;33;0;42;516,084,195,119,053;3;738;288,333,333,333,333;60;375;2;1;0;0;1;2;2;1;3;2761;1;FALSE;0.451038576;4907;5;0
1f6c1040a7cf18ae7b41291be6db0a15;Michele Brambilla;m;33;0;43;363,451,602,438,215;2,5;727;282;60;375;1;2;0;0;1;2;1;1;3;2329;1;TRUE;0.599406528;4040;5;1
1f6c1040a7cf18ae7b41291be6db0a15;Michele Brambilla;m;33;0;44;527,487,257,339,649;3;738;288,333,333,333,333;60;375;0;1;2;0;1;2;0;1;3;2601;0;TRUE;0.648367953;3018;5;1
1f6c1040a7cf18ae7b41291be6db0a15;Michele Brambilla;m;33;0;45;346,620,358,774,212;2,1;714,428,571,428,571;274,761,904,761,905;60;375;0;2;1;0;1;2;0;1;3;2189;0;TRUE;0.596439169;3004;5;1
1f6c1040a7cf18ae7b41291be6db0a15;Michele Brambilla;m;33;0;46;416,896,219,677,263;2,1;714,428,571,428,571;274,761,904,761,905;60;375;0;2;1;0;1;2;0;1;3;3757;2;FALSE;0.599406528;3108;5;0
1f6c1040a7cf18ae7b41291be6db0a15;Michele Brambilla;m;33;0;47;250,100,740,064,104;2,5;694;263;60;375;1;0;2;0;1;2;0;2;2;5307;0;TRUE;0.550445104;2274;5;1
1f6c1040a7cf18ae7b41291be6db0a15;Michele Brambilla;m;33;0;48;42,517,007,548,533;2,1;706,571,428,571,429;270,238,095,238,095;60;375;0;1;2;0;1;2;1;2;3;2730;0;FALSE;0.502967359;2733;5;0
1f6c1040a7cf18ae7b41291be6db0a15;Michele Brambilla;m;33;0;49;512,233,131,404,185;3;738;288,333,333,333,333;60;375;1;2;0;0;1;2;1;1;2;2437;1;TRUE;0.703264095;4707;5;1
1f6c1040a7cf18ae7b41291be6db0a15;Michele Brambilla;m;33;0;50;194,223,002,665,723;2,5;727;282;60;375;1;0;2;0;1;2;1;1;2;2780;1;TRUE;0.703264095;1802;5;1
1f6c1040a7cf18ae7b41291be6db0a15;Michele Brambilla;m;33;0;51;19,867,046,382,074;2,1;706,571,428,571,429;270,238,095,238,095;60;375;1;2;0;0;1;2;2;2;3;2514;1;FALSE;0.602373887;2177;5;0
1f6c1040a7cf18ae7b41291be6db0a15;Michele Brambilla;m;33;0;52;510,494,236,416,224;2,5;694;263;60;375;0;1;2;0;1;2;1;2;2;4549;1;TRUE;0.802670623;2812;5;1
1f6c1040a7cf18ae7b41291be6db0a15;Michele Brambilla;m;33;0;53;582,299,635,109,072;3;683;256,666,666,666,667;60;375;2;1;0;0;1;2;1;2;2;2683;1;TRUE;0.700296736;5585;5;1
1f6c1040a7cf18ae7b41291be6db0a15;Michele Brambilla;m;33;0;54;321,000,231,573,178;2,5;727;282;60;375;0;1;2;0;1;2;0;1;3;2653;0;TRUE;0.597922849;2815;5;1
1f6c1040a7cf18ae7b41291be6db0a15;Michele Brambilla;m;33;0;55;214,507,242,397,316;3;683;256,666,666,666,667;60;375;0;2;1;0;1;2;2;2;2;4489;2;TRUE;0.798219585;3343;5;1
1f6c1040a7cf18ae7b41291be6db0a15;Michele Brambilla;m;33;0;56;27,064,805,977,274;2,5;694;263;60;375;2;1;0;0;1;2;1;2;3;2315;1;TRUE;0.700296736;5007;5;1
1f6c1040a7cf18ae7b41291be6db0a15;Michele Brambilla;m;33;0;57;0,0772128968076647;2,1;714,428,571,428,571;274,761,904,761,905;60;375;2;0;1;0;1;2;2;1;3;2423;0;FALSE;0.597922849;4489;5;0
1f6c1040a7cf18ae7b41291be6db0a15;Michele Brambilla;m;33;0;58;275,360,236,059,147;2,5;727;282;60;375;0;1;2;0;1;2;0;1;2;2256;0;TRUE;0.548961424;3146;5;1
1f6c1040a7cf18ae7b41291be6db0a15;Michele Brambilla;m;33;0;59;498,583,834,673,778;3;683;256,666,666,666,667;60;375;0;1;2;0;1;2;1;2;3;2479;1;TRUE;0.704747774;4580;5;1
1f6c1040a7cf18ae7b41291be6db0a15;Michele Brambilla;m;33;0;60;0,0944611644075375;3;738;288,333,333,333,333;60;375;1;0;2;0;1;2;1;1;3;2513;1;TRUE;0.448071217;4422;5;1
1f6c1040a7cf18ae7b41291be6db0a15;Michele Brambilla;m;33;0;61;202,621,395,141,356;2,5;727;282;60;375;1;0;2;0;1;2;1;1;2;3025;1;TRUE;0.600890208;4592;5;1
1f6c1040a7cf18ae7b41291be6db0a15;Michele Brambilla;m;33;0;62;0,782169175607718;2,1;714,428,571,428,571;274,761,904,761,905;60;375;1;2;0;0;1;2;1;1;3;4673;1;TRUE;0;1363;5;1
1f6c1040a7cf18ae7b41291be6db0a15;Michele Brambilla;m;33;0;63;274,134,589,319,039;2,1;714,428,571,428,571;274,761,904,761,905;60;375;0;2;1;0;1;2;0;1;2;2646;0;TRUE;0.602373887;5368;5;1
1f6c1040a7cf18ae7b41291be6db0a15;Michele Brambilla;m;33;0;64;23,154,345,982,158;2,5;727;282;60;375;1;2;0;0;1;2;1;1;2;4948;1;TRUE;0.796735905;2064;5;1
1f6c1040a7cf18ae7b41291be6db0a15;Michele Brambilla;m;33;0;65;258,732,435,320,546;2,5;694;263;60;375;0;1;2;0;1;2;1;2;3;2475;1;TRUE;0.802670623;2034;5;1
1f6c1040a7cf18ae7b41291be6db0a15;Michele Brambilla;m;33;0;66;438,756,208,045,577;2,1;714,428,571,428,571;274,761,904,761,905;60;375;0;2;1;0;1;2;0;1;2;2959;0;TRUE;0.50148368;5300;5;1
1f6c1040a7cf18ae7b41291be6db0a15;Michele Brambilla;m;33;0;67;498,833,625,100,266;3;738;288,333,333,333,333;60;375;0;1;2;0;1;2;0;1;2;2125;0;TRUE;0.504451039;2400;5;1
1f6c1040a7cf18ae7b41291be6db0a15;Michele Brambilla;m;33;0;68;620,391,780,153,041;2,5;694;263;60;375;1;0;2;0;1;2;0;2;2;2673;1;FALSE;0.502967359;4906;5;0
1f6c1040a7cf18ae7b41291be6db0a15;Michele Brambilla;m;33;0;70;468,534,036,551,697;2,1;706,571,428,571,429;270,238,095,238,095;60;375;2;1;0;0;1;2;1;2;2;4176;1;TRUE;0.5;3576;5;1
1f6c1040a7cf18ae7b41291be6db0a15;Michele Brambilla;m;33;0;71;490,887,917,595,796;2,5;727;282;60;375;1;2;0;0;1;2;1;1;3;2149;1;TRUE;0.796735905;4629;5;1
1f6c1040a7cf18ae7b41291be6db0a15;Michele Brambilla;m;33;0;72;235,563,335,259,954;3;738;288,333,333,333,333;60;375;1;2;0;0;1;2;1;1;2;2185;1;TRUE;0.802670623;2419;5;1
1f6c1040a7cf18ae7b41291be6db0a15;Michele Brambilla;m;33;0;73;0,417643262118086;2,1;714,428,571,428,571;274,761,904,761,905;60;375;0;1;2;0;1;2;0;1;2;3884;0;TRUE;0.801186944;5956;5;1
1f6c1040a7cf18ae7b41291be6db0a15;Michele Brambilla;m;33;0;74;272,612,648,026,578;2,5;694;263;60;375;1;2;0;0;1;2;2;2;2;2757;2;TRUE;0.651335312;6834;5;1
1f6c1040a7cf18ae7b41291be6db0a15;Michele Brambilla;m;33;0;75;0,903054558353434;3;683;256,666,666,666,667;60;375;1;0;2;0;1;2;0;2;3;2569;0;TRUE;0.497032641;3943;5;1
1f6c1040a7cf18ae7b41291be6db0a15;Michele Brambilla;m;33;0;76;565,088,414,041,636;2,1;706,571,428,571,429;270,238,095,238,095;60;375;2;0;1;0;1;2;0;2;3;4125;2;FALSE;0.5;4865;5;0
1f6c1040a7cf18ae7b41291be6db0a15;Michele Brambilla;m;33;0;77;239,992,160,081,531;2,1;706,571,428,571,429;270,238,095,238,095;60;375;1;0;2;0;1;2;0;2;3;7661;1;FALSE;0.502967359;4933;5;0
1f6c1040a7cf18ae7b41291be6db0a15;Michele Brambilla;m;33;0;78;104,196,990,014,531;2,5;694;263;60;375;2;0;1;0;1;2;0;2;2;2751;0;TRUE;0.698813056;2753;5;1
1f6c1040a7cf18ae7b41291be6db0a15;Michele Brambilla;m;33;0;80;263,702,567,278,483;2,5;727;282;60;375;1;0;2;0;1;2;1;1;2;3636;1;TRUE;0.602373887;4032;5;1
1f6c1040a7cf18ae7b41291be6db0a15;Michele Brambilla;m;33;0;81;561,468,220,197,829;2,5;727;282;60;375;0;1;2;0;1;2;0;1;2;2530;1;FALSE;0.504451039;2754;5;0
1f6c1040a7cf18ae7b41291be6db0a15;Michele Brambilla;m;33;0;82;0,0427853781418056;2,1;706,571,428,571,429;270,238,095,238,095;60;375;0;2;1;0;1;2;2;2;2;2404;0;FALSE;0.550445104;3252;5;0
1f6c1040a7cf18ae7b41291be6db0a15;Michele Brambilla;m;33;0;83;150,755,353,426,012;2,1;706,571,428,571,429;270,238,095,238,095;60;375;2;1;0;0;1;2;1;2;3;3024;1;TRUE;0.548961424;3191;5;1
1f6c1040a7cf18ae7b41291be6db0a15;Michele Brambilla;m;33;0;84;0,683304234024789;2,5;694;263;60;375;2;0;1;0;1;2;0;2;3;4331;2;FALSE;0.504451039;2978;5;0
1f6c1040a7cf18ae7b41291be6db0a15;Michele Brambilla;m;33;0;85;502,136,804,142,431;3;738;288,333,333,333,333;60;375;2;1;0;0;1;2;2;1;2;2904;1;FALSE;0.50148368;1740;5;0
1f6c1040a7cf18ae7b41291be6db0a15;Michele Brambilla;m;33;0;86;431,994,827,194,586;2,5;727;282;60;375;2;1;0;0;1;2;2;1;2;2585;2;TRUE;0.49851632;4511;5;1
1f6c1040a7cf18ae7b41291be6db0a15;Michele Brambilla;m;33;0;87;487,726,284,043,807;2,5;694;263;60;375;2;0;1;0;1;2;0;2;2;3726;0;TRUE;0.5;3361;5;1
1f6c1040a7cf18ae7b41291be6db0a15;Michele Brambilla;m;33;0;89;593,891,722,734,756;3;683;256,666,666,666,667;60;375;0;1;2;0;1;2;1;2;2;2814;1;TRUE;0.704747774;4633;5;1
1f6c1040a7cf18ae7b41291be6db0a15;Michele Brambilla;m;33;0;90;379,149,345,428,435;2,1;706,571,428,571,429;270,238,095,238,095;60;375;0;2;1;0;1;2;2;2;3;4748;0;FALSE;0.50148368;3676;5;0
1f6c1040a7cf18ae7b41291be6db0a15;Michele Brambilla;m;33;0;91;516,514,982,549,716;2,5;727;282;60;375;1;0;2;0;1;2;1;1;2;3039;1;TRUE;0.454005935;6003;5;1
1f6c1040a7cf18ae7b41291be6db0a15;Michele Brambilla;m;33;0;92;211,232,799,072,425;3;683;256,666,666,666,667;60;375;2;1;0;0;1;2;1;2;3;3141;1;TRUE;0.547477745;4071;5;1
1f6c1040a7cf18ae7b41291be6db0a15;Michele Brambilla;m;33;0;93;0,622432444966954;3;738;288,333,333,333,333;60;375;1;0;2;0;1;2;1;1;2;2579;1;TRUE;0.700296736;3069;5;1
1f6c1040a7cf18ae7b41291be6db0a15;Michele Brambilla;m;33;0;94;412,489,689,851,525;2,1;706,571,428,571,429;270,238,095,238,095;60;375;1;0;2;0;1;2;0;2;2;2784;1;FALSE;0.502967359;4360;5;0
1f6c1040a7cf18ae7b41291be6db0a15;Michele Brambilla;m;33;0;95;555,670,289,498,862;2,5;694;263;60;375;1;0;2;0;1;2;0;2;3;3222;0;TRUE;0.50148368;2482;5;1
1f6c1040a7cf18ae7b41291be6db0a15;Michele Brambilla;m;33;0;96;443,295,092,898,678;2,5;694;263;60;375;1;2;0;0;1;2;2;2;3;3090;2;TRUE;0.651335312;4511;5;1
1f6c1040a7cf18ae7b41291be6db0a15;Michele Brambilla;m;33;0;97;144,754,826,736,382;2,1;706,571,428,571,429;270,238,095,238,095;60;375;0;1;2;0;1;2;1;2;3;2945;0;FALSE;0.596439169;4165;5;0
1f6c1040a7cf18ae7b41291be6db0a15;Michele Brambilla;m;33;0;98;353,126,358,730,853;2,1;706,571,428,571,429;270,238,095,238,095;60;375;0;2;1;0;1;2;2;2;2;4781;0;FALSE;0.649851632;2096;5;0
1f6c1040a7cf18ae7b41291be6db0a15;Michele Brambilla;m;33;0;100;531,612,707,139,589;2,5;694;263;60;375;0;2;1;0;1;2;2;2;3;2942;0;FALSE;0.504451039;2197;5;0
1f6c1040a7cf18ae7b41291be6db0a15;Michele Brambilla;m;33;0;101;226,361,381,253,443;3;738;288,333,333,333,333;60;375;1;2;0;0;1;2;1;1;2;2332;1;TRUE;0.651335312;2916;5;1
1f6c1040a7cf18ae7b41291be6db0a15;Michele Brambilla;m;33;0;102;236,730,014,299,108;3;683;256,666,666,666,667;60;375;1;0;2;0;1;2;0;2;2;3610;1;FALSE;0.602373887;3658;5;0
1f6c1040a7cf18ae7b41291be6db0a15;Michele Brambilla;m;33;0;103;389,947,047,209,498;3;683;256,666,666,666,667;60;375;2;1;0;0;1;2;1;2;2;2329;1;TRUE;0.752225519;3747;5;1
1f6c1040a7cf18ae7b41291be6db0a15;Michele Brambilla;m;33;0;104;59,137,797,544,568;2,5;727;282;60;375;2;1;0;0;1;2;2;1;3;4711;2;TRUE;0.50148368;3355;5;1
1f6c1040a7cf18ae7b41291be6db0a15;Michele Brambilla;m;33;0;105;385,113,056,805,985;2,1;706,571,428,571,429;270,238,095,238,095;60;375;0;2;1;0;1;2;2;2;2;5329;0;FALSE;0.5;2708;5;0
1f6c1040a7cf18ae7b41291be6db0a15;Michele Brambilla;m;33;0;106;564,037,302,877,287;2,1;706,571,428,571,429;270,238,095,238,095;60;375;1;0;2;0;1;2;0;2;2;2925;0;TRUE;0.502967359;4263;5;1
1f6c1040a7cf18ae7b41291be6db0a15;Michele Brambilla;m;33;0;107;146,210,156,212,587;3;683;256,666,666,666,667;60;375;0;2;1;0;1;2;2;2;3;2255;2;TRUE;0.700296736;3862;5;1
1f6c1040a7cf18ae7b41291be6db0a15;Michele Brambilla;m;33;0;108;305,440,380,466,721;2,1;706,571,428,571,429;270,238,095,238,095;60;375;2;0;1;0;1;2;0;2;2;3162;0;TRUE;0.701780415;3312;5;1
1f6c1040a7cf18ae7b41291be6db0a15;Michele Brambilla;m;33;0;109;233,751,883,938,978;2,5;694;263;60;375;2;1;0;0;1;2;1;2;3;3282;1;TRUE;0.654302671;2503;5;1
1f6c1040a7cf18ae7b41291be6db0a15;Michele Brambilla;m;33;0;110;10,558,122,163,998;3;683;256,666,666,666,667;60;375;1;2;0;0;1;2;2;2;2;3984;2;TRUE;0.600890208;4175;5;1
1f6c1040a7cf18ae7b41291be6db0a15;Michele Brambilla;m;33;0;111;185,518,202,754,536;3;683;256,666,666,666,667;60;375;2;0;1;0;1;2;0;2;2;3795;0;TRUE;0.805637982;2877;5;1
1f6c1040a7cf18ae7b41291be6db0a15;Michele Brambilla;m;33;0;112;0,247673123273075;2,1;714,428,571,428,571;274,761,904,761,905;60;375;2;1;0;0;1;2;2;1;2;2705;2;TRUE;0.551928783;4086;5;1
1f6c1040a7cf18ae7b41291be6db0a15;Michele Brambilla;m;33;0;113;388,095,172,941,006;3;738;288,333,333,333,333;60;375;2;0;1;0;1;2;2;1;3;3079;2;TRUE;0.50148368;4852;5;1
1f6c1040a7cf18ae7b41291be6db0a15;Michele Brambilla;m;33;0;114;518,777,525,998,397;2,1;706,571,428,571,429;270,238,095,238,095;60;375;0;2;1;0;1;2;2;2;2;6182;0;FALSE;0.50148368;4468;5;0
1f6c1040a7cf18ae7b41291be6db0a15;Michele Brambilla;m;33;0;115;493,456,342,481,233;2,5;694;263;60;375;2;0;1;0;1;2;0;2;2;2791;0;TRUE;0.704747774;5431;5;1
1f6c1040a7cf18ae7b41291be6db0a15;Michele Brambilla;m;33;0;116;0,630575583642352;2,1;706,571,428,571,429;270,238,095,238,095;60;375;0;2;1;0;1;2;2;2;2;2451;2;TRUE;0.700296736;4786;5;1
1f6c1040a7cf18ae7b41291be6db0a15;Michele Brambilla;m;33;0;117;346,117,081,867,593;2,5;727;282;60;375;1;0;2;0;1;2;1;1;2;2222;1;TRUE;0.698813056;2583;5;1
1f6c1040a7cf18ae7b41291be6db0a15;Michele Brambilla;m;33;0;118;577,817,950,534,535;2,5;694;263;60;375;2;0;1;0;1;2;0;2;3;2816;0;TRUE;0.645400593;4797;5;1
1f6c1040a7cf18ae7b41291be6db0a15;Michele Brambilla;m;33;0;119;585,942,605,448,006;2,1;714,428,571,428,571;274,761,904,761,905;60;375;1;2;0;0;1;2;1;1;2;2342;1;TRUE;0.497032641;5277;5;1
1f6c1040a7cf18ae7b41291be6db0a15;Michele Brambilla;m;33;0;120;0,121884251191525;3;683;256,666,666,666,667;60;375;0;1;2;0;1;2;1;2;3;2244;1;TRUE;0.704747774;3098;5;1
cab4ac967d44dec21527e7b439dee96d;julieta;f;19;0;1;0,324564062168202;3;640;269,666,666,666,667;60;375;1;2;0;0;1;2;2;2;3;3826;1;FALSE;0.036507937;2116;6;0
cab4ac967d44dec21527e7b439dee96d;julieta;f;19;0;2;3,487,076,789,496;2,1;671,428,571,428,571;287,761,904,761,905;60;375;1;0;2;0;1;2;1;1;3;2604;0;FALSE;0.915873016;1840;6;0
cab4ac967d44dec21527e7b439dee96d;julieta;f;19;0;3;249,218,656,113,458;3;695;301,333,333,333,333;60;375;0;2;1;0;1;2;0;1;2;2547;0;TRUE;0.925396825;1870;6;1
cab4ac967d44dec21527e7b439dee96d;julieta;f;19;0;4;2,961,314,322,515;2,1;671,428,571,428,571;287,761,904,761,905;60;375;0;1;2;0;1;2;0;1;2;3212;1;FALSE;0.598412698;1551;6;0
cab4ac967d44dec21527e7b439dee96d;julieta;f;19;0;5;466,684,589,535,281;3;695;301,333,333,333,333;60;375;1;0;2;0;1;2;1;1;3;3391;1;TRUE;1;1372;6;1
cab4ac967d44dec21527e7b439dee96d;julieta;f;19;0;6;168,784,805,479,515;2,5;651;276;60;375;2;0;1;0;1;2;0;2;3;2922;0;TRUE;0.923809524;1186;6;1
cab4ac967d44dec21527e7b439dee96d;julieta;f;19;0;7;163,476,263,520,689;2,1;663,571,428,571,429;283,238,095,238,095;60;375;1;2;0;0;1;2;2;2;3;3445;2;TRUE;0.598412698;1615;6;1
cab4ac967d44dec21527e7b439dee96d;julieta;f;19;0;8;0,426531051760382;2,1;671,428,571,428,571;287,761,904,761,905;60;375;1;0;2;0;1;2;1;1;3;3134;0;FALSE;0.40952381;1664;6;0
cab4ac967d44dec21527e7b439dee96d;julieta;f;19;0;9;148,760,311,285,783;2,1;663,571,428,571,429;283,238,095,238,095;60;375;2;1;0;0;1;2;1;2;2;2576;1;TRUE;0.901587302;1456;6;1
cab4ac967d44dec21527e7b439dee96d;julieta;f;19;0;10;595,817,362,384,239;2,5;684;295;60;375;0;2;1;0;1;2;0;1;2;2340;0;TRUE;0.976190476;1593;6;1
cab4ac967d44dec21527e7b439dee96d;julieta;f;19;0;11;249,297,978,768,471;2,1;663,571,428,571,429;283,238,095,238,095;60;375;2;1;0;0;1;2;1;2;2;4830;1;TRUE;0.858730159;1744;6;1
cab4ac967d44dec21527e7b439dee96d;julieta;f;19;0;12;259,359,473,199,214;2,5;651;276;60;375;2;1;0;0;1;2;1;2;2;3872;1;TRUE;0.795238095;1708;6;1
cab4ac967d44dec21527e7b439dee96d;julieta;f;19;0;13;491,330,107,714,366;3;695;301,333,333,333,333;60;375;2;0;1;0;1;2;2;1;3;4451;2;TRUE;1;1084;6;1
cab4ac967d44dec21527e7b439dee96d;julieta;f;19;0;14;0,643012057500067;2,5;684;295;60;375;2;1;0;0;1;2;2;1;2;8812;1;FALSE;0.642857143;5294;6;0
cab4ac967d44dec21527e7b439dee96d;julieta;f;19;0;15;21,434,328,392,127;3;640;269,666,666,666,667;60;375;0;2;1;0;1;2;2;2;3;2600;2;TRUE;0.866666667;1561;6;1
cab4ac967d44dec21527e7b439dee96d;julieta;f;19;0;16;466,026,878,678,568;2,1;671,428,571,428,571;287,761,904,761,905;60;375;2;0;1;0;1;2;2;1;2;4463;2;TRUE;0.722222222;1652;6;1
cab4ac967d44dec21527e7b439dee96d;julieta;f;19;0;17;53,963,468,349,458;3;695;301,333,333,333,333;60;375;1;0;2;0;1;2;1;1;3;2645;1;TRUE;1;837;6;1
cab4ac967d44dec21527e7b439dee96d;julieta;f;19;0;18;350,146,152,937,582;3;640;269,666,666,666,667;60;375;1;0;2;0;1;2;0;2;2;3524;0;TRUE;0.865079365;4979;6;1
cab4ac967d44dec21527e7b439dee96d;julieta;f;19;0;19;297,046,698,130,444;2,5;684;295;60;375;2;1;0;0;1;2;2;1;3;2695;2;TRUE;0.904761905;1859;6;1
cab4ac967d44dec21527e7b439dee96d;julieta;f;19;0;20;616,674,416,363,096;2,5;684;295;60;375;0;2;1;0;1;2;0;1;3;2661;0;TRUE;0.796825397;4365;6;1
cab4ac967d44dec21527e7b439dee96d;julieta;f;19;0;21;284,930,896,509,675;3;695;301,333,333,333,333;60;375;2;0;1;0;1;2;2;1;2;3506;0;FALSE;0.342857143;1223;6;0
cab4ac967d44dec21527e7b439dee96d;julieta;f;19;0;22;595,865,013,915,186;3;695;301,333,333,333,333;60;375;1;2;0;0;1;2;1;1;3;2549;1;TRUE;0.880952381;3654;6;1
cab4ac967d44dec21527e7b439dee96d;julieta;f;19;0;23;442,190,030,382,267;3;695;301,333,333,333,333;60;375;1;0;2;0;1;2;1;1;2;3734;1;TRUE;0.887301587;4269;6;1
cab4ac967d44dec21527e7b439dee96d;julieta;f;19;0;24;338,747,622,168,496;2,5;684;295;60;375;2;0;1;0;1;2;2;1;3;2658;2;TRUE;0.719047619;1835;6;1
cab4ac967d44dec21527e7b439dee96d;julieta;f;19;0;25;0,314448539288641;2,1;671,428,571,428,571;287,761,904,761,905;60;375;1;0;2;0;1;2;1;1;3;5361;1;TRUE;0.896825397;6835;6;1
cab4ac967d44dec21527e7b439dee96d;julieta;f;19;0;26;0,689752823337657;3;695;301,333,333,333,333;60;375;2;0;1;0;1;2;2;1;2;2403;2;TRUE;0.907936508;3365;6;1
cab4ac967d44dec21527e7b439dee96d;julieta;f;19;0;27;615,930,537,763,555;2,1;671,428,571,428,571;287,761,904,761,905;60;375;2;1;0;0;1;2;2;1;3;4172;2;TRUE;0.83968254;2997;6;1
cab4ac967d44dec21527e7b439dee96d;julieta;f;19;0;28;624,341,134,191,281;2,1;663,571,428,571,429;283,238,095,238,095;60;375;1;0;2;0;1;2;0;2;2;3416;0;TRUE;0.753968254;2368;6;1
cab4ac967d44dec21527e7b439dee96d;julieta;f;19;0;29;377,694,877,242,554;3;640;269,666,666,666,667;60;375;1;2;0;0;1;2;2;2;3;3974;2;TRUE;0.771428571;2654;6;1
cab4ac967d44dec21527e7b439dee96d;julieta;f;19;0;30;507,907,390,574,667;3;640;269,666,666,666,667;60;375;0;2;1;0;1;2;2;2;2;2120;2;TRUE;1;868;6;1
cab4ac967d44dec21527e7b439dee96d;julieta;f;19;0;31;136,186,099,682,107;3;640;269,666,666,666,667;60;375;2;1;0;0;1;2;1;2;3;4013;1;TRUE;0.838095238;1549;6;1
cab4ac967d44dec21527e7b439dee96d;julieta;f;19;0;32;490,726,373,126,806;2,5;651;276;60;375;0;1;2;0;1;2;1;2;3;4187;1;TRUE;0.844444444;1491;6;1
cab4ac967d44dec21527e7b439dee96d;julieta;f;19;0;33;339,085,414,164,943;2,1;663,571,428,571,429;283,238,095,238,095;60;375;0;2;1;0;1;2;2;2;2;3563;0;FALSE;0.838095238;1917;6;0
cab4ac967d44dec21527e7b439dee96d;julieta;f;19;0;34;578,614,505,634,781;2,1;671,428,571,428,571;287,761,904,761,905;60;375;0;1;2;0;1;2;0;1;2;1587;0;TRUE;0.920634921;1076;6;1
cab4ac967d44dec21527e7b439dee96d;julieta;f;19;0;35;377,108,393,585,049;2,5;651;276;60;375;2;1;0;0;1;2;1;2;3;1948;1;TRUE;0.788888889;667;6;1
cab4ac967d44dec21527e7b439dee96d;julieta;f;19;0;36;14,897,515,610,753;2,1;671,428,571,428,571;287,761,904,761,905;60;375;2;1;0;0;1;2;2;1;3;1799;2;TRUE;0.89047619;2149;6;1
cab4ac967d44dec21527e7b439dee96d;julieta;f;19;0;37;55,413,831,605,956;2,5;651;276;60;375;1;0;2;0;1;2;0;2;2;1505;0;TRUE;1;804;6;1
cab4ac967d44dec21527e7b439dee96d;julieta;f;19;0;38;291,491,039,927,086;2,1;671,428,571,428,571;287,761,904,761,905;60;375;1;0;2;0;1;2;1;1;2;1767;1;TRUE;0.7;776;6;1
cab4ac967d44dec21527e7b439dee96d;julieta;f;19;0;39;415,998,437,291,804;3;640;269,666,666,666,667;60;375;0;1;2;0;1;2;1;2;3;1419;1;TRUE;0.884126984;2066;6;1
cab4ac967d44dec21527e7b439dee96d;julieta;f;19;0;40;326,299,105,558,173;3;695;301,333,333,333,333;60;375;2;0;1;0;1;2;2;1;2;1360;2;TRUE;0.841269841;1741;6;1
cab4ac967d44dec21527e7b439dee96d;julieta;f;19;0;41;325,176,415,934,254;2,5;651;276;60;375;2;1;0;0;1;2;1;2;2;1719;1;TRUE;0.915873016;653;6;1
cab4ac967d44dec21527e7b439dee96d;julieta;f;19;0;42;0,824803248661716;2,1;663,571,428,571,429;283,238,095,238,095;60;375;0;2;1;0;1;2;2;2;3;2564;2;TRUE;0.374603175;574;6;1
