"";"Code";"Name";"Gender";"Age";"Mobile";"Trial_number";"Angle";"Step_Angle";"Area1";"Area2";"Area3";"n3SquareOrCircle";"BiggerCircleOrSquare";"PosBig";"StimVal";"StimVal3";"Nalternativas";"RT_type1";"Response";"Correct";"Confidence";"RT_Confidence";"Nsujeto";"binary_correct";"squareResp";"circleResp"
"1";"41a7b3f9312c7ebd5aaf7a21adda70ac";"Cielo";"f";22;0;2;1,20540538246632;-2,0943951023932;9601,76202784825;7681,4096222786;4608,84577336716;1;2;2;0,8;0,6;3;2581;2;TRUE;0,921364985163205;3058;1;1;1;0
"2";"41a7b3f9312c7ebd5aaf7a21adda70ac";"Cielo";"f";22;0;3;2,87636111772903;-2,0943951023932;5430,52890212488;3801,37023148742;1520,54809259497;0;1;1;0,7;0;2;1757;1;TRUE;0,961424332344214;2863;1;1;0;1
"3";"41a7b3f9312c7ebd5aaf7a21adda70ac";"Cielo";"f";22;0;4;2,71549969355966;2,0943951023932;12653,1590589707;8857,21134127949;5314,32680476769;2;1;1;0,7;0,6;3;1625;1;TRUE;1;1130;1;1;0;1
"4";"41a7b3f9312c7ebd5aaf7a21adda70ac";"Cielo";"f";22;0;5;2,83235648943429;-2,0943951023932;10119,9155865363;9107,92402788266;4553,96201394133;0;1;1;0,9;0;2;2041;1;TRUE;0,919881305637982;3829;1;1;0;1
"5";"41a7b3f9312c7ebd5aaf7a21adda70ac";"Cielo";"f";22;0;6;0,870182248982082;-2,0943951023932;10197,9431143676;9688,04595864926;968,804595864926;2;1;1;0,95;0,1;3;14106;1;TRUE;0,565281899109792;4298;1;1;0;1
"6";"41a7b3f9312c7ebd5aaf7a21adda70ac";"Cielo";"f";22;0;7;2,06579185134915;2,0943951023932;5739,57230675684;5165,61507608116;3099,36904564869;0;2;2;0,9;0;2;8925;2;TRUE;0,474777448071217;1747;1;1;1;0
"7";"41a7b3f9312c7ebd5aaf7a21adda70ac";"Cielo";"f";22;0;8;0,000541382335893832;2,0943951023932;11471,8219296436;10668,7943945685;2133,7588789137;0;1;1;0,93;0;2;1875;1;TRUE;0,698813056379822;9846;1;1;0;1
"8";"41a7b3f9312c7ebd5aaf7a21adda70ac";"Cielo";"f";22;0;9;0,66736850115104;-2,0943951023932;8022,31956366862;6417,85565093489;1283,57113018698;2;1;1;0,8;0,2;3;2784;1;TRUE;0,804154302670623;3447;1;1;0;1
"9";"41a7b3f9312c7ebd5aaf7a21adda70ac";"Cielo";"f";22;0;10;3,11058261972288;2,0943951023932;9483,20861871051;6638,24603309736;1991,47380992921;2;2;2;0,7;0,3;3;2240;2;TRUE;0,971810089020771;3564;1;1;1;0
"10";"41a7b3f9312c7ebd5aaf7a21adda70ac";"Cielo";"f";22;0;11;2,40589702124157;-2,0943951023932;10938,9308981278;10391,9843532214;5195,9921766107;2;2;2;0,95;0,5;3;5407;1;FALSE;0,799703264094956;8047;1;0;0;1
"11";"41a7b3f9312c7ebd5aaf7a21adda70ac";"Cielo";"f";22;0;12;0,0144947631398324;-2,0943951023932;4903,10062280658;3922,48049824527;1961,24024912263;0;1;1;0,8;0;2;2640;1;TRUE;0,485163204747774;10129;1;1;0;1
"12";"41a7b3f9312c7ebd5aaf7a21adda70ac";"Cielo";"f";22;0;13;0,562285838681318;-2,0943951023932;6877,42745539086;5501,94196431269;1100,38839286254;0;2;2;0,8;0;2;2556;2;TRUE;0,695845697329377;3107;1;1;1;0
"13";"41a7b3f9312c7ebd5aaf7a21adda70ac";"Cielo";"f";22;0;14;3,10944084783866;2,0943951023932;9478,50287122173;8530,65258409956;3412,26103363982;0;1;1;0,9;0;2;1841;1;TRUE;0,802670623145401;3714;1;1;0;1
"14";"41a7b3f9312c7ebd5aaf7a21adda70ac";"Cielo";"f";22;0;15;4,79200120697547;-2,0943951023932;8033,7750446336;5623,64253124352;1124,7285062487;2;2;2;0,7;0,2;3;1902;2;TRUE;1;2045;1;1;1;0
"15";"41a7b3f9312c7ebd5aaf7a21adda70ac";"Cielo";"f";22;0;16;3,06923910521441;-2,0943951023932;6019,88272793086;4815,90618234469;1926,36247293788;0;2;2;0,8;0;2;2453;2;TRUE;0,795252225519288;7002;1;1;1;0
"16";"41a7b3f9312c7ebd5aaf7a21adda70ac";"Cielo";"f";22;0;17;1,0371899103926;2,0943951023932;9356,5942322643;7485,27538581144;2245,58261574343;2;1;1;0,8;0,3;3;1658;1;TRUE;0,799703264094956;7914;1;1;0;1
"17";"41a7b3f9312c7ebd5aaf7a21adda70ac";"Cielo";"f";22;0;18;1,70177796666711;2,0943951023932;9810,06290038149;9123,35849735478;4561,67924867739;1;1;1;0,93;0,5;3;13306;1;TRUE;0,29673590504451;5463;1;1;0;1
"18";"41a7b3f9312c7ebd5aaf7a21adda70ac";"Cielo";"f";22;0;19;0,546889288185894;2,0943951023932;4982,75505494582;4733,61730219852;2366,80865109926;0;1;1;0,95;0;2;4891;1;TRUE;0,201780415430267;5162;1;1;0;1
"19";"41a7b3f9312c7ebd5aaf7a21adda70ac";"Cielo";"f";22;0;20;1,0735018758847;2,0943951023932;8015,19228917486;7454,12882893262;2981,65153157305;0;1;1;0,93;0;2;3475;2;FALSE;0;1478;1;0;1;0
"20";"41a7b3f9312c7ebd5aaf7a21adda70ac";"Cielo";"f";22;0;21;5,06313216807278;2,0943951023932;7695,99217662721;7311,19256779585;1462,23851355917;2;1;1;0,95;0,2;3;2175;1;TRUE;0,5;2431;1;1;0;1
"21";"41a7b3f9312c7ebd5aaf7a21adda70ac";"Cielo";"f";22;0;22;4,31591242974885;2,0943951023932;8906,05799492454;8460,75509517832;846,075509517832;0;1;1;0,95;0;2;4092;1;TRUE;0,396142433234421;4546;1;1;0;1
"22";"41a7b3f9312c7ebd5aaf7a21adda70ac";"Cielo";"f";22;0;23;3,77830241869207;2,0943951023932;6892,9267509808;4825,04872568656;1447,51461770597;0;2;2;0,7;0;2;1824;2;TRUE;1;1561;1;1;1;0
"23";"41a7b3f9312c7ebd5aaf7a21adda70ac";"Cielo";"f";22;0;24;6,04946708364826;2,0943951023932;9438,78050396699;8494,90245357029;1698,98049071406;0;2;2;0,9;0;2;9325;2;TRUE;0,560830860534125;4477;1;1;1;0
"24";"41a7b3f9312c7ebd5aaf7a21adda70ac";"Cielo";"f";22;0;25;5,0997318551468;2,0943951023932;10664,865514494;8531,89241159517;3412,75696463807;1;2;2;0,8;0,4;3;2160;2;TRUE;1;1131;1;1;1;0
"25";"41a7b3f9312c7ebd5aaf7a21adda70ac";"Cielo";"f";22;0;26;0,102935901081468;2,0943951023932;7850,49274512826;5495,34492158978;549,534492158978;0;2;2;0,7;0;2;1658;2;TRUE;1;2117;1;1;1;0
"26";"41a7b3f9312c7ebd5aaf7a21adda70ac";"Cielo";"f";22;0;27;5,23970838159308;-2,0943951023932;6680,63937839095;6212,99462190358;621,299462190358;1;1;1;0,93;0,1;3;2624;1;TRUE;1;1478;1;1;0;1
"27";"41a7b3f9312c7ebd5aaf7a21adda70ac";"Cielo";"f";22;0;28;5,69593041298481;2,0943951023932;7725,21014889336;7338,9496414487;2201,68489243461;1;1;1;0,95;0,3;3;7883;1;TRUE;0,445103857566766;5410;1;1;0;1
"28";"41a7b3f9312c7ebd5aaf7a21adda70ac";"Cielo";"f";22;0;29;1,32462559251557;-2,0943951023932;6480,96198813188;6156,91388872529;1231,38277774506;0;1;1;0,95;0;2;6356;2;FALSE;0,397626112759644;3299;1;0;1;0
"29";"41a7b3f9312c7ebd5aaf7a21adda70ac";"Cielo";"f";22;0;30;6,22176904691945;2,0943951023932;9326,72221500433;7461,37777200346;4476,82666320208;0;2;2;0,8;0;2;1906;2;TRUE;0,801186943620178;5812;1;1;1;0
"30";"41a7b3f9312c7ebd5aaf7a21adda70ac";"Cielo";"f";22;0;31;0,286039725642151;-2,0943951023932;9470,88659211437;8523,79793290293;3409,51917316117;2;1;1;0,9;0,4;3;4718;1;TRUE;0,853115727002967;3337;1;1;0;1
"31";"41a7b3f9312c7ebd5aaf7a21adda70ac";"Cielo";"f";22;0;32;0,0297670144900077;-2,0943951023932;5665,90578805038;5269,29238288685;526,929238288685;0;2;2;0,93;0;2;3308;2;TRUE;0,676557863501484;3532;1;1;1;0
"32";"41a7b3f9312c7ebd5aaf7a21adda70ac";"Cielo";"f";22;0;33;2,61807325774337;2,0943951023932;7035,89694110544;6543,38415522806;3926,03049313684;2;1;1;0,93;0,6;3;2841;1;TRUE;0,704747774480712;3844;1;1;0;1
"33";"41a7b3f9312c7ebd5aaf7a21adda70ac";"Cielo";"f";22;0;34;2,43252726793703;-2,0943951023932;8622,60767653201;6898,08614122561;2759,23445649024;2;1;1;0,8;0,4;3;2124;1;TRUE;0,698813056379822;9164;1;1;0;1
"34";"41a7b3f9312c7ebd5aaf7a21adda70ac";"Cielo";"f";22;0;35;2,87987283049291;2,0943951023932;8415,88501464414;5891,1195102509;589,11195102509;0;1;1;0,7;0;2;2579;1;TRUE;0,799703264094956;3324;1;1;0;1
"35";"41a7b3f9312c7ebd5aaf7a21adda70ac";"Cielo";"f";22;0;36;5,98164209444944;-2,0943951023932;5635,14513210232;3944,60159247162;2366,76095548297;0;1;1;0,7;0;2;1008;1;TRUE;0,902077151335312;6379;1;1;0;1
"36";"41a7b3f9312c7ebd5aaf7a21adda70ac";"Cielo";"f";22;0;37;1,06228509089316;2,0943951023932;5455,55665243788;4910,00098719409;491,000098719409;0;1;1;0,9;0;2;5008;2;FALSE;1;2665;1;0;1;0
"37";"41a7b3f9312c7ebd5aaf7a21adda70ac";"Cielo";"f";22;0;38;4,17674976212474;-2,0943951023932;9294,74814700146;8365,27333230131;1673,05466646026;2;1;1;0,9;0,2;3;1805;1;TRUE;1;2844;1;1;0;1
"38";"41a7b3f9312c7ebd5aaf7a21adda70ac";"Cielo";"f";22;0;39;3,85347683011112;-2,0943951023932;3652,61771061407;3287,35593955266;657,471187910533;1;2;2;0,9;0,2;3;8557;2;TRUE;0,685459940652819;3715;1;1;1;0
"39";"41a7b3f9312c7ebd5aaf7a21adda70ac";"Cielo";"f";22;0;40;4,92943733287914;-2,0943951023932;6971,20446819106;6483,22015541769;3241,61007770884;0;2;2;0,93;0;2;8311;1;FALSE;0,489614243323442;3514;1;0;0;1
"40";"41a7b3f9312c7ebd5aaf7a21adda70ac";"Cielo";"f";22;0;41;4,36265043840879;2,0943951023932;9884,23503003154;9390,02327852996;3756,00931141198;1;2;2;0,95;0,4;3;1687;1;FALSE;1;1394;1;0;0;1
"41";"41a7b3f9312c7ebd5aaf7a21adda70ac";"Cielo";"f";22;0;42;5,68844045689905;-2,0943951023932;8875,20517635995;6212,64362345196;1242,52872469039;0;2;2;0,7;0;2;1741;2;TRUE;1;1081;1;1;1;0
"42";"41a7b3f9312c7ebd5aaf7a21adda70ac";"Cielo";"f";22;0;43;1,00800209973645;-2,0943951023932;9327,37412432457;8674,45793562185;2602,33738068655;2;1;1;0,93;0,3;3;9160;1;TRUE;0,712166172106825;2445;1;1;0;1
"43";"41a7b3f9312c7ebd5aaf7a21adda70ac";"Cielo";"f";22;0;44;6,10550293971142;2,0943951023932;7838,4074065932;5486,88518461524;548,688518461524;1;2;2;0,7;0,1;3;2120;2;TRUE;1;1413;1;1;1;0
"44";"41a7b3f9312c7ebd5aaf7a21adda70ac";"Cielo";"f";22;0;45;0,609644685865029;2,0943951023932;9679,79899088038;7743,8391927043;1548,76783854086;0;1;1;0,8;0;2;3008;1;TRUE;1;1395;1;1;0;1
"45";"41a7b3f9312c7ebd5aaf7a21adda70ac";"Cielo";"f";22;0;46;2,72440808852014;2,0943951023932;10792,5297259707;10037,0526451528;6022,23158709166;0;2;2;0,93;0;2;2226;2;TRUE;0,799703264094956;7045;1;1;1;0
"46";"41a7b3f9312c7ebd5aaf7a21adda70ac";"Cielo";"f";22;0;47;0,708756441550473;-2,0943951023932;9421,07931445949;8761,60376244733;2628,4811287342;0;2;2;0,93;0;2;2392;2;TRUE;0,425816023738872;2845;1;1;1;0
"47";"41a7b3f9312c7ebd5aaf7a21adda70ac";"Cielo";"f";22;0;48;4,32753570270897;-2,0943951023932;8333,82884901356;7917,13740656288;791,713740656288;2;2;2;0,95;0,1;3;2074;2;TRUE;0,163204747774481;5931;1;1;1;0
"48";"41a7b3f9312c7ebd5aaf7a21adda70ac";"Cielo";"f";22;0;49;6,04204477945662;2,0943951023932;7956,90256457774;7161,21230811996;2148,36369243599;2;1;1;0,9;0,3;3;2993;1;TRUE;0,5;2780;1;1;0;1
"49";"41a7b3f9312c7ebd5aaf7a21adda70ac";"Cielo";"f";22;0;50;6,23622570249444;2,0943951023932;8733,84890875107;6113,69423612575;1222,73884722515;0;1;1;0,7;0;2;2225;1;TRUE;0,615727002967359;2713;1;1;0;1
"50";"41a7b3f9312c7ebd5aaf7a21adda70ac";"Cielo";"f";22;0;51;6,00195073556878;-2,0943951023932;7777,39732501886;7388,52745876792;2955,41098350717;0;2;2;0,95;0;2;8613;2;TRUE;0;1935;1;1;1;0
"51";"41a7b3f9312c7ebd5aaf7a21adda70ac";"Cielo";"f";22;0;52;0,855927489762912;-2,0943951023932;6659,98921961411;6193,78997424112;1238,75799484822;1;1;1;0,93;0,2;3;2455;1;TRUE;0,304154302670623;4551;1;1;0;1
"52";"41a7b3f9312c7ebd5aaf7a21adda70ac";"Cielo";"f";22;0;53;4,92395993883628;-2,0943951023932;7096,83260968483;6741,99097920059;4045,19458752035;0;2;2;0,95;0;2;1643;2;TRUE;0,102373887240356;6296;1;1;1;0
"53";"41a7b3f9312c7ebd5aaf7a21adda70ac";"Cielo";"f";22;0;54;2,90961294095821;-2,0943951023932;5844,73211040336;5260,25889936302;526,025889936302;0;2;2;0,9;0;2;2392;2;TRUE;0,0905044510385757;2265;1;1;1;0
"54";"41a7b3f9312c7ebd5aaf7a21adda70ac";"Cielo";"f";22;0;55;2,60611984112748;-2,0943951023932;6906,21439372566;6560,90367403938;656,090367403938;0;2;2;0,95;0;2;8456;2;TRUE;0;1096;1;1;1;0
"55";"41a7b3f9312c7ebd5aaf7a21adda70ac";"Cielo";"f";22;0;56;2,70649321453276;2,0943951023932;5805,13988567193;5224,62589710474;1567,38776913142;1;2;2;0,9;0,3;3;2548;2;TRUE;0,14540059347181;5156;1;1;1;0
"56";"41a7b3f9312c7ebd5aaf7a21adda70ac";"Cielo";"f";22;0;57;0,287224291632625;-2,0943951023932;6286,30662663252;5971,99129530089;1791,59738859027;0;2;2;0,95;0;2;2642;2;TRUE;0;929;1;1;1;0
"57";"41a7b3f9312c7ebd5aaf7a21adda70ac";"Cielo";"f";22;0;58;3,87501294334474;2,0943951023932;3047,28494405943;2437,82795524754;243,782795524754;0;1;1;0,8;0;2;3017;1;TRUE;0,295252225519288;2614;1;1;0;1
"58";"41a7b3f9312c7ebd5aaf7a21adda70ac";"Cielo";"f";22;0;59;5,91896717352634;-2,0943951023932;8997,57052108631;8097,81346897768;3239,12538759107;0;2;2;0,9;0;2;1309;2;TRUE;0,897626112759644;2546;1;1;1;0
"59";"41a7b3f9312c7ebd5aaf7a21adda70ac";"Cielo";"f";22;0;60;4,81481164612721;-2,0943951023932;8148,08502695307;6518,46802156245;3911,08081293747;0;1;1;0,8;0;2;2158;1;TRUE;0,498516320474777;2812;1;1;0;1
"60";"41a7b3f9312c7ebd5aaf7a21adda70ac";"Cielo";"f";22;0;61;2,59183350965515;2,0943951023932;8852,08873131736;7081,67098505389;2124,50129551617;2;2;2;0,8;0,3;3;2225;2;TRUE;0,701780415430267;11628;1;1;1;0
"61";"41a7b3f9312c7ebd5aaf7a21adda70ac";"Cielo";"f";22;0;62;6,00827075386129;2,0943951023932;4708,30807886804;4378,72651334728;875,745302669456;2;2;2;0,93;0,2;3;2124;2;TRUE;0;6464;1;1;1;0
"62";"41a7b3f9312c7ebd5aaf7a21adda70ac";"Cielo";"f";22;0;63;3,40643052067082;2,0943951023932;8063,96409653624;7499,4866097787;749,94866097787;2;2;2;0,93;0,1;3;1531;2;TRUE;0,399109792284866;9397;1;1;1;0
"63";"41a7b3f9312c7ebd5aaf7a21adda70ac";"Cielo";"f";22;0;64;0,289423129156001;-2,0943951023932;5721,2014369577;4576,96114956616;1830,78445982646;0;1;1;0,8;0;2;4375;1;TRUE;0,597922848664688;7263;1;1;0;1
"64";"41a7b3f9312c7ebd5aaf7a21adda70ac";"Cielo";"f";22;0;65;1,30257090313374;-2,0943951023932;5909,32412395475;4136,52688676832;2068,26344338416;1;1;1;0,7;0,5;3;2027;1;TRUE;0,704747774480712;5459;1;1;0;1
"65";"41a7b3f9312c7ebd5aaf7a21adda70ac";"Cielo";"f";22;0;66;4,15041249788547;2,0943951023932;8285,05580276514;7870,80301262688;3935,40150631344;0;2;2;0,95;0;2;4275;2;TRUE;0,704747774480712;7913;1;1;1;0
"66";"41a7b3f9312c7ebd5aaf7a21adda70ac";"Cielo";"f";22;0;67;4,57931878152754;2,0943951023932;7845,38466966016;5491,76926876211;1647,53078062863;1;1;1;0,7;0,3;3;1742;1;TRUE;1;3347;1;1;0;1
"67";"41a7b3f9312c7ebd5aaf7a21adda70ac";"Cielo";"f";22;0;68;0,224819234150261;-2,0943951023932;5894,75787563878;4715,80630051102;2357,90315025551;2;2;2;0,8;0,5;3;3835;2;TRUE;0,70326409495549;2747;1;1;1;0
"68";"41a7b3f9312c7ebd5aaf7a21adda70ac";"Cielo";"f";22;0;69;2,29770973830302;-2,0943951023932;10479,2404777772;7335,46833444401;2934,1873337776;2;1;1;0,7;0,4;3;1622;1;TRUE;1;1162;1;1;0;1
"69";"41a7b3f9312c7ebd5aaf7a21adda70ac";"Cielo";"f";22;0;70;1,97661948997701;-2,0943951023932;7470,39360304309;7096,87392289094;2838,74956915637;0;1;1;0,95;0;2;1841;1;TRUE;0,79673590504451;3813;1;1;0;1
"70";"41a7b3f9312c7ebd5aaf7a21adda70ac";"Cielo";"f";22;0;71;4,46173438910297;-2,0943951023932;5143,03190985482;4885,88031436208;2931,52818861725;0;1;1;0,95;0;2;5007;1;TRUE;0,0252225519287834;4414;1;1;0;1
"71";"41a7b3f9312c7ebd5aaf7a21adda70ac";"Cielo";"f";22;0;72;0,127232563332759;-2,0943951023932;5810,74392482317;5229,66953234085;1045,93390646817;0;1;1;0,9;0;2;2024;1;TRUE;0;912;1;1;0;1
"72";"41a7b3f9312c7ebd5aaf7a21adda70ac";"Cielo";"f";22;0;73;3,05072609044809;2,0943951023932;8366,98078536297;6693,58462829038;2008,07538848711;0;1;1;0,8;0;2;1776;1;TRUE;0,201780415430267;1596;1;1;0;1
"73";"41a7b3f9312c7ebd5aaf7a21adda70ac";"Cielo";"f";22;0;74;4,25797222064434;-2,0943951023932;5796,77801845786;4637,42241476629;2318,71120738315;0;2;2;0,8;0;2;1656;2;TRUE;0,879821958456973;3930;1;1;1;0
"74";"41a7b3f9312c7ebd5aaf7a21adda70ac";"Cielo";"f";22;0;75;6,2636107354619;2,0943951023932;6518,17191086787;4562,72033760751;1825,088135043;1;2;2;0,7;0,4;3;2042;2;TRUE;0,986646884272997;7725;1;1;1;0
"75";"41a7b3f9312c7ebd5aaf7a21adda70ac";"Cielo";"f";22;0;76;3,57680590753928;-2,0943951023932;3326,78294895188;3093,90814252525;1237,5632570101;1;1;1;0,93;0,4;3;2572;1;TRUE;0,201780415430267;5242;1;1;0;1
"76";"41a7b3f9312c7ebd5aaf7a21adda70ac";"Cielo";"f";22;0;77;5,41655430732696;-2,0943951023932;7351,64349348453;5881,31479478762;2940,65739739381;2;1;1;0,8;0,5;3;2076;1;TRUE;0,301186943620178;2910;1;1;0;1
"77";"41a7b3f9312c7ebd5aaf7a21adda70ac";"Cielo";"f";22;0;78;1,90654999110165;2,0943951023932;4600,43744688129;3680,34995750503;1104,10498725151;0;2;2;0,8;0;2;2907;2;TRUE;1;2277;1;1;1;0
"78";"41a7b3f9312c7ebd5aaf7a21adda70ac";"Cielo";"f";22;0;79;4,59954423639021;-2,0943951023932;7266,67513332538;6540,00761999284;3924,0045719957;1;1;1;0,9;0,6;3;2141;1;TRUE;0,50593471810089;2846;1;1;0;1
"79";"41a7b3f9312c7ebd5aaf7a21adda70ac";"Cielo";"f";22;0;80;1,64446878981346;-2,0943951023932;7939,62369670733;7145,6613270366;714,56613270366;1;1;1;0,9;0,1;3;2343;1;TRUE;0,301186943620178;6297;1;1;0;1
"80";"41a7b3f9312c7ebd5aaf7a21adda70ac";"Cielo";"f";22;0;81;1,07464022599898;-2,0943951023932;5960,45402611737;5543,22224428915;2217,28889771566;1;2;2;0,93;0,4;3;2485;2;TRUE;0;1368;1;1;1;0
"81";"41a7b3f9312c7ebd5aaf7a21adda70ac";"Cielo";"f";22;0;82;3,65856883202829;-2,0943951023932;6104,06937200472;4883,25549760378;488,325549760378;2;2;2;0,8;0,1;3;1909;2;TRUE;0,0964391691394659;2862;1;1;1;0
"82";"41a7b3f9312c7ebd5aaf7a21adda70ac";"Cielo";"f";22;0;83;5,89361359300134;2,0943951023932;10393,0801941205;7275,15613588433;2182,5468407653;0;1;1;0,7;0;2;1710;1;TRUE;1;1145;1;1;0;1
"83";"41a7b3f9312c7ebd5aaf7a21adda70ac";"Cielo";"f";22;0;84;4,19739956698342;-2,0943951023932;6117,39668637311;5811,52685205446;2905,76342602723;1;1;1;0,95;0,5;3;2291;1;TRUE;0;1064;1;1;0;1
"84";"41a7b3f9312c7ebd5aaf7a21adda70ac";"Cielo";"f";22;0;85;0,921253851864449;-2,0943951023932;8054,63068122041;6443,70454497633;3866,2227269858;1;1;1;0,8;0,6;3;2257;1;TRUE;0,0489614243323442;2614;1;1;0;1
"85";"41a7b3f9312c7ebd5aaf7a21adda70ac";"Cielo";"f";22;0;86;0,0682810686306813;2,0943951023932;7991,97021021392;7432,53229549895;4459,51937729937;0;1;1;0,93;0;2;2125;2;FALSE;0;1114;1;0;1;0
"86";"41a7b3f9312c7ebd5aaf7a21adda70ac";"Cielo";"f";22;0;87;2,36936563521782;2,0943951023932;7238,39357461157;6514,55421715042;2605,82168686017;1;2;2;0,9;0,4;3;4711;2;TRUE;0;3527;1;1;1;0
"87";"41a7b3f9312c7ebd5aaf7a21adda70ac";"Cielo";"f";22;0;88;4,96984688259735;2,0943951023932;8381,16872421768;5866,81810695238;2933,40905347619;2;2;2;0,7;0,5;3;1294;2;TRUE;1;910;1;1;1;0
"88";"41a7b3f9312c7ebd5aaf7a21adda70ac";"Cielo";"f";22;0;89;2,07450180763261;2,0943951023932;10411,1753177404;8328,94025419235;832,894025419235;0;2;2;0,8;0;2;1860;2;TRUE;1;1280;1;1;1;0
"89";"41a7b3f9312c7ebd5aaf7a21adda70ac";"Cielo";"f";22;0;90;0,0116125518413323;-2,0943951023932;8079,74482447099;5655,82137712969;565,582137712969;1;1;1;0,7;0,1;3;1791;1;TRUE;1;912;1;1;0;1
"90";"41a7b3f9312c7ebd5aaf7a21adda70ac";"Cielo";"f";22;0;91;5,1844105331439;2,0943951023932;9493,32112248223;6645,32478573756;3322,66239286878;0;1;1;0,7;0;2;2058;1;TRUE;1;1262;1;1;0;1
"91";"41a7b3f9312c7ebd5aaf7a21adda70ac";"Cielo";"f";22;0;92;4,19954780833415;-2,0943951023932;7020,14439700018;6318,12995730017;3159,06497865008;2;1;1;0,9;0,5;3;3092;2;FALSE;0,896142433234421;7345;1;0;1;0
"92";"41a7b3f9312c7ebd5aaf7a21adda70ac";"Cielo";"f";22;0;93;0,464870187321468;2,0943951023932;5280,93682535968;3696,65577775177;1478,66231110071;0;2;2;0,7;0;2;1840;2;TRUE;1;1112;1;1;1;0
"93";"41a7b3f9312c7ebd5aaf7a21adda70ac";"Cielo";"f";22;0;94;0,269935646308591;-2,0943951023932;3774,23128964916;2641,96190275441;1585,17714165265;1;2;2;0,7;0,6;3;2210;2;TRUE;1;1411;1;1;1;0
"94";"41a7b3f9312c7ebd5aaf7a21adda70ac";"Cielo";"f";22;0;95;1,40330884363314;-2,0943951023932;8275,98323144681;6620,78658515745;1324,15731703149;1;2;2;0,8;0,2;3;1475;2;TRUE;1;994;1;1;1;0
"95";"41a7b3f9312c7ebd5aaf7a21adda70ac";"Cielo";"f";22;0;96;2,13602056092297;-2,0943951023932;9419,58572718942;7535,66858175153;753,566858175153;1;1;1;0,8;0,1;3;1759;1;TRUE;1;1342;1;1;0;1
"96";"41a7b3f9312c7ebd5aaf7a21adda70ac";"Cielo";"f";22;0;97;3,20476440804836;-2,0943951023932;7471,35838815016;7097,79046874265;2839,11618749706;2;1;1;0,95;0,4;3;1676;1;TRUE;1;2196;1;1;0;1
"97";"41a7b3f9312c7ebd5aaf7a21adda70ac";"Cielo";"f";22;0;98;0,455807993450992;2,0943951023932;8820,40299403925;8202,9747844565;4101,48739222825;2;2;2;0,93;0,5;3;1657;2;TRUE;1;1446;1;1;1;0
"98";"41a7b3f9312c7ebd5aaf7a21adda70ac";"Cielo";"f";22;0;99;5,39870422522265;2,0943951023932;8827,029971031;8385,67847247945;1677,13569449589;0;2;2;0,95;0;2;2741;2;TRUE;0,599406528189911;3230;1;1;1;0
"99";"41a7b3f9312c7ebd5aaf7a21adda70ac";"Cielo";"f";22;0;100;5,48390098145235;-2,0943951023932;7068,41245582294;6573,62358391533;2629,44943356613;0;2;2;0,93;0;2;2424;2;TRUE;0;2380;1;1;1;0
"100";"41a7b3f9312c7ebd5aaf7a21adda70ac";"Cielo";"f";22;0;101;4,08251858327251;2,0943951023932;7511,22081931468;7135,65977834894;4281,39586700937;1;1;1;0,95;0,6;3;1658;1;TRUE;1;897;1;1;0;1
"101";"41a7b3f9312c7ebd5aaf7a21adda70ac";"Cielo";"f";22;0;102;0,98408654529045;2,0943951023932;8988,01800287694;8358,85674267556;2507,65702280267;1;2;2;0,93;0,3;3;2107;2;TRUE;1;1197;1;1;1;0
"102";"41a7b3f9312c7ebd5aaf7a21adda70ac";"Cielo";"f";22;0;103;5,73142415482639;-2,0943951023932;8852,50384144704;7967,25345730234;3983,62672865117;0;2;2;0,9;0;2;1797;2;TRUE;0,78486646884273;6259;1;1;1;0
"103";"41a7b3f9312c7ebd5aaf7a21adda70ac";"Cielo";"f";22;0;104;0,3056617969543;-2,0943951023932;8763,98486464286;7887,58637817858;2366,27591345357;0;1;1;0,9;0;2;2876;1;TRUE;0,600890207715134;3497;1;1;0;1
"104";"41a7b3f9312c7ebd5aaf7a21adda70ac";"Cielo";"f";22;0;105;4,38399098044453;2,0943951023932;8831,69156122076;7948,52240509868;3974,26120254934;1;2;2;0,9;0,5;3;2042;1;FALSE;0,553412462908012;3855;1;0;0;1
"105";"41a7b3f9312c7ebd5aaf7a21adda70ac";"Cielo";"f";22;0;106;1,65130823014786;2,0943951023932;7561,96341882717;7032,62597950927;3516,31298975463;0;1;1;0,93;0;2;4905;2;FALSE;0,551928783382789;1628;1;0;1;0
"106";"41a7b3f9312c7ebd5aaf7a21adda70ac";"Cielo";"f";22;0;107;5,85703771216954;-2,0943951023932;7697,23021030125;5388,06114721088;3232,83668832653;0;2;2;0,7;0;2;1626;2;TRUE;1;862;1;1;1;0
"107";"41a7b3f9312c7ebd5aaf7a21adda70ac";"Cielo";"f";22;0;108;1,34004069189555;2,0943951023932;7435,21694063307;6914,75175478876;4148,85105287325;2;2;2;0,93;0,6;3;2043;2;TRUE;1;1212;1;1;1;0
"108";"41a7b3f9312c7ebd5aaf7a21adda70ac";"Cielo";"f";22;0;109;3,9508745086702;2,0943951023932;10470,135024374;9946,62827315531;5967,97696389318;2;2;2;0,95;0,6;3;2058;1;FALSE;1;1248;1;0;0;1
"109";"41a7b3f9312c7ebd5aaf7a21adda70ac";"Cielo";"f";22;0;110;4,65238832900543;-2,0943951023932;9907,8758047531;9214,32449842038;1842,86489968408;0;2;2;0,93;0;2;1819;2;TRUE;0,79673590504451;1968;1;1;1;0
"110";"41a7b3f9312c7ebd5aaf7a21adda70ac";"Cielo";"f";22;0;111;2,20947604410366;2,0943951023932;7779,45462468795;7390,48189345355;2217,14456803606;1;2;2;0,95;0,3;3;2025;2;TRUE;0,562314540059347;2429;1;1;1;0
"111";"41a7b3f9312c7ebd5aaf7a21adda70ac";"Cielo";"f";22;0;112;0,258665843811097;2,0943951023932;4210,38643810716;2947,27050667501;589,454101335002;2;1;1;0,7;0,2;3;1808;1;TRUE;1;1346;1;1;0;1
"112";"41a7b3f9312c7ebd5aaf7a21adda70ac";"Cielo";"f";22;0;113;4,84321603847671;-2,0943951023932;8169,84803370358;7352,86323033322;4411,71793819993;0;1;1;0,9;0;2;1475;1;TRUE;0,850148367952522;4260;1;1;0;1
"113";"41a7b3f9312c7ebd5aaf7a21adda70ac";"Cielo";"f";22;0;114;2,22368982002488;2,0943951023932;9112,14027778226;8474,29045833751;2542,28713750125;0;1;1;0,93;0;2;2258;2;FALSE;0,78486646884273;2745;1;0;1;0
"114";"41a7b3f9312c7ebd5aaf7a21adda70ac";"Cielo";"f";22;0;115;6,23623295308092;2,0943951023932;7545,92322054709;7168,62705951973;1433,72541190395;1;2;2;0,95;0,2;3;1804;2;TRUE;1;832;1;1;1;0
"115";"41a7b3f9312c7ebd5aaf7a21adda70ac";"Cielo";"f";22;0;116;1,7137530593013;2,0943951023932;10425,4835673089;9382,93521057799;5629,7611263468;1;2;2;0,9;0,6;3;1974;2;TRUE;1;1097;1;1;1;0
"116";"41a7b3f9312c7ebd5aaf7a21adda70ac";"Cielo";"f";22;0;117;1,58367246365409;-2,0943951023932;10686,5104488545;9617,85940396909;2885,35782119073;0;2;2;0,9;0;2;3658;2;TRUE;0,844213649851632;3080;1;1;1;0
"117";"41a7b3f9312c7ebd5aaf7a21adda70ac";"Cielo";"f";22;0;118;1,85675803605228;-2,0943951023932;9031,15585001299;6321,80909500909;3160,90454750455;0;2;2;0,7;0;2;1243;2;TRUE;1;754;1;1;1;0
"118";"41a7b3f9312c7ebd5aaf7a21adda70ac";"Cielo";"f";22;0;119;0,860284879243253;2,0943951023932;4783,87969365942;4544,68570897644;1363,40571269293;0;1;1;0,95;0;2;6299;1;TRUE;0,299703264094956;2283;1;1;0;1
"119";"41a7b3f9312c7ebd5aaf7a21adda70ac";"Cielo";"f";22;0;120;0,714851346815584;2,0943951023932;8629,39987588677;7766,45988829809;776,645988829809;2;2;2;0,9;0,1;3;2723;2;TRUE;0,497032640949555;2634;1;1;1;0
"120";"d96d48e01fed796f796183c040508c42";"Ana Paula";"f";19;0;1;5,52390268937148;-2,0943951023932;9899,00540013147;9206,07502212226;2761,82250663668;0;1;1;0,93;0;2;3023;1;TRUE;0,712401055408971;6716;2;1;0;1
"121";"d96d48e01fed796f796183c040508c42";"Ana Paula";"f";19;0;2;2,97238494030214;2,0943951023932;6342,80229781805;5074,24183825444;1522,27255147633;1;2;2;0,8;0,3;3;2706;2;TRUE;0,346965699208443;4522;2;1;1;0
"122";"d96d48e01fed796f796183c040508c42";"Ana Paula";"f";19;0;3;5,18636035990901;-2,0943951023932;5154,42846056006;4896,70703753206;2938,02422251924;1;2;2;0,95;0,6;3;2498;2;TRUE;0,74934036939314;9131;2;1;1;0
"123";"d96d48e01fed796f796183c040508c42";"Ana Paula";"f";19;0;4;0,534366431324352;2,0943951023932;8550,83458118991;7695,75112307092;2308,72533692127;0;1;1;0,9;0;2;4627;1;TRUE;0,151715039577836;4584;2;1;0;1
"124";"d96d48e01fed796f796183c040508c42";"Ana Paula";"f";19;0;5;1,23827429910209;2,0943951023932;10774,5899146032;7542,21294022221;3016,88517608888;0;2;2;0,7;0;2;2179;2;TRUE;0,798153034300792;3762;2;1;1;0
"125";"d96d48e01fed796f796183c040508c42";"Ana Paula";"f";19;0;6;0,367490146546851;2,0943951023932;4750,96926984872;3800,77541587898;2280,46524952739;2;1;1;0,8;0,6;3;3665;1;TRUE;0,303430079155673;2791;2;1;0;1
"126";"d96d48e01fed796f796183c040508c42";"Ana Paula";"f";19;0;7;4,11155446938378;2,0943951023932;8794,27349631667;8178,67435157451;817,867435157451;0;2;2;0,93;0;2;6636;2;TRUE;0,0514511873350923;3614;2;1;1;0
"127";"d96d48e01fed796f796183c040508c42";"Ana Paula";"f";19;0;8;1,17844710378461;2,0943951023932;8316,45570699976;5821,51899489983;3492,9113969399;1;2;2;0,7;0,6;3;2171;2;TRUE;0,650395778364116;5204;2;1;1;0
"128";"d96d48e01fed796f796183c040508c42";"Ana Paula";"f";19;0;9;5,69084123120029;2,0943951023932;5960,68029812004;5662,64628321404;1698,79388496421;2;1;1;0,95;0,3;3;3899;1;TRUE;0,195250659630607;2771;2;1;0;1
"129";"d96d48e01fed796f796183c040508c42";"Ana Paula";"f";19;0;10;3,7082590334371;-2,0943951023932;11127,4309710593;10014,6878739534;6008,81272437203;0;2;2;0,9;0;2;5889;2;TRUE;0,0686015831134565;4923;2;1;1;0
"130";"d96d48e01fed796f796183c040508c42";"Ana Paula";"f";19;0;11;2,77832214852477;2,0943951023932;10477,6501500407;8382,12012003254;3352,84804801302;0;2;2;0,8;0;2;2901;2;TRUE;0,403693931398417;7290;2;1;1;0
"131";"d96d48e01fed796f796183c040508c42";"Ana Paula";"f";19;0;12;1,11627798580902;2,0943951023932;4768,05765715261;4291,25189143734;858,250378287469;0;2;2;0,9;0;2;5212;2;TRUE;0,0474934036939314;2604;2;1;1;0
"132";"d96d48e01fed796f796183c040508c42";"Ana Paula";"f";19;0;13;5,63005417405069;-2,0943951023932;6325,93691614263;5060,74953291411;1012,14990658282;0;2;2;0,8;0;2;4918;1;FALSE;0,0527704485488127;2933;2;0;0;1
"133";"d96d48e01fed796f796183c040508c42";"Ana Paula";"f";19;0;14;5,87581640424129;2,0943951023932;4977,923660019;3484,5465620133;348,45465620133;1;1;1;0,7;0,1;3;2383;1;TRUE;0,951187335092348;7327;2;1;0;1
"134";"d96d48e01fed796f796183c040508c42";"Ana Paula";"f";19;0;15;0,130265287815746;-2,0943951023932;8141,48071372615;6513,18457098092;651,318457098092;2;2;2;0,8;0,1;3;2570;2;TRUE;0,352242744063325;2358;2;1;1;0
"135";"d96d48e01fed796f796183c040508c42";"Ana Paula";"f";19;0;16;2,02747611011477;2,0943951023932;6591,6808856117;4614,17661992819;1384,25298597846;0;2;2;0,7;0;2;2661;2;TRUE;0,350923482849604;4256;2;1;1;0
"136";"d96d48e01fed796f796183c040508c42";"Ana Paula";"f";19;0;17;1,1404207771995;-2,0943951023932;10174,5457443109;9665,8184570954;4832,9092285477;0;2;2;0,95;0;2;9210;2;TRUE;0,296833773087071;6432;2;1;1;0
"137";"d96d48e01fed796f796183c040508c42";"Ana Paula";"f";19;0;18;2,98727511613497;-2,0943951023932;4895,57269501774;4552,8826063665;2731,7295638199;0;1;1;0,93;0;2;9113;1;TRUE;0,24934036939314;4055;2;1;0;1
"138";"d96d48e01fed796f796183c040508c42";"Ana Paula";"f";19;0;19;4,59456756087779;2,0943951023932;8543,79917305807;5980,65942114065;3588,39565268439;0;1;1;0,7;0;2;2153;1;TRUE;0,445910290237467;5990;2;1;0;1
"139";"d96d48e01fed796f796183c040508c42";"Ana Paula";"f";19;0;20;6,14126578111097;-2,0943951023932;6704,14209485979;6234,85214821961;3740,91128893177;2;2;2;0,93;0,6;3;4341;2;TRUE;0,401055408970976;3290;2;1;1;0
"140";"d96d48e01fed796f796183c040508c42";"Ana Paula";"f";19;0;21;3,19451675362251;-2,0943951023932;9138,64418638256;7310,91534910605;4386,54920946363;2;2;2;0,8;0,6;3;2767;2;TRUE;0,551451187335092;2911;2;1;1;0
"141";"d96d48e01fed796f796183c040508c42";"Ana Paula";"f";19;0;22;0,448207416797018;2,0943951023932;9290,78662532359;8361,70796279123;836,170796279123;0;2;2;0,9;0;2;12443;2;TRUE;0,0488126649076517;2531;2;1;1;0
"142";"d96d48e01fed796f796183c040508c42";"Ana Paula";"f";19;0;23;4,94385564972876;-2,0943951023932;6217,93319072969;4974,34655258376;497,434655258376;0;2;2;0,8;0;2;1869;2;TRUE;0,449868073878628;2784;2;1;1;0
"143";"d96d48e01fed796f796183c040508c42";"Ana Paula";"f";19;0;24;2,22582374866866;2,0943951023932;7524,85535407453;6772,36981866708;1354,47396373342;0;1;1;0,9;0;2;4890;1;TRUE;0,147757255936675;4338;2;1;0;1
"144";"d96d48e01fed796f796183c040508c42";"Ana Paula";"f";19;0;25;4,5401713846369;2,0943951023932;6122,75785391018;5694,16480413647;2847,08240206824;0;1;1;0,93;0;2;5369;2;FALSE;0,403693931398417;4825;2;0;1;0
"145";"d96d48e01fed796f796183c040508c42";"Ana Paula";"f";19;0;26;2,8960414301194;-2,0943951023932;7694,24112034109;6155,39289627287;615,539289627287;1;1;1;0,8;0,1;3;2136;1;TRUE;0,651715039577836;5964;2;1;0;1
"146";"d96d48e01fed796f796183c040508c42";"Ana Paula";"f";19;0;27;2,47945551520687;2,0943951023932;7284,30273869934;6774,40154699039;677,440154699039;0;1;1;0,93;0;2;12247;1;TRUE;0,274406332453826;2928;2;1;0;1
"147";"d96d48e01fed796f796183c040508c42";"Ana Paula";"f";19;0;28;0,557791962241262;-2,0943951023932;6289,78454434458;4402,84918104121;1320,85475431236;1;2;2;0,7;0,3;3;1866;2;TRUE;0,802110817941952;2111;2;1;1;0
"148";"d96d48e01fed796f796183c040508c42";"Ana Paula";"f";19;0;29;5,34307142364032;2,0943951023932;5959,16713608065;4171,41699525645;1668,56679810258;0;1;1;0,7;0;2;1396;1;TRUE;0,552770448548813;3636;2;1;0;1
"149";"d96d48e01fed796f796183c040508c42";"Ana Paula";"f";19;0;30;1,49651653485452;2,0943951023932;10865,2915981319;10104,7211862626;5052,36059313132;1;2;2;0,93;0,5;3;15734;2;TRUE;0,146437994722955;2274;2;1;1;0
"150";"d96d48e01fed796f796183c040508c42";"Ana Paula";"f";19;0;31;4,39640502044746;-2,0943951023932;8310,47301242787;7728,73990155792;772,873990155792;1;2;2;0,93;0,1;3;13539;1;FALSE;0,146437994722955;5743;2;0;0;1
"151";"d96d48e01fed796f796183c040508c42";"Ana Paula";"f";19;0;32;0,0246576177591325;2,0943951023932;7166,31658406671;6808,00075486337;3404,00037743169;0;1;1;0,95;0;2;4296;1;TRUE;0,0963060686015831;3720;2;1;0;1
"152";"d96d48e01fed796f796183c040508c42";"Ana Paula";"f";19;0;33;6,01318830759782;-2,0943951023932;8969,57747562026;6278,70423293418;1255,74084658684;0;1;1;0,7;0;2;3293;1;TRUE;0,449868073878628;4708;2;1;0;1
"153";"d96d48e01fed796f796183c040508c42";"Ana Paula";"f";19;0;34;6,17508769816719;2,0943951023932;6466,7258051446;4526,70806360122;452,670806360122;0;1;1;0,7;0;2;1955;1;TRUE;0,550131926121372;3948;2;1;0;1
"154";"d96d48e01fed796f796183c040508c42";"Ana Paula";"f";19;0;35;2,3836611845522;-2,0943951023932;9143,38383018885;7314,70706415108;2925,88282566043;1;2;2;0,8;0,4;3;2018;2;TRUE;0,602902374670185;4465;2;1;1;0
"155";"d96d48e01fed796f796183c040508c42";"Ana Paula";"f";19;0;36;1,09114349647024;-2,0943951023932;5751,28567999057;4601,02854399245;2300,51427199623;1;2;2;0,8;0,5;3;2638;2;TRUE;0,654353562005277;2722;2;1;1;0
"156";"d96d48e01fed796f796183c040508c42";"Ana Paula";"f";19;0;37;1,28623124602833;2,0943951023932;7682,77140897272;6146,21712717818;614,621712717818;0;1;1;0,8;0;2;3344;1;TRUE;0,246701846965699;3585;2;1;0;1
"157";"d96d48e01fed796f796183c040508c42";"Ana Paula";"f";19;0;38;0,244916135005431;2,0943951023932;7541,40596326923;5278,98417428846;1055,79683485769;2;2;2;0,7;0,2;3;2261;2;TRUE;0,453825857519789;1211;2;1;1;0
"158";"d96d48e01fed796f796183c040508c42";"Ana Paula";"f";19;0;39;5,7964706937499;2,0943951023932;7811,28625497478;7420,72194222604;2968,28877689041;0;1;1;0,95;0;2;3968;1;TRUE;0,150395778364116;2441;2;1;0;1
"159";"d96d48e01fed796f796183c040508c42";"Ana Paula";"f";19;0;40;3,05501594014214;2,0943951023932;12614,5150847714;10091,6120678172;6054,96724069029;0;1;1;0,8;0;2;3170;1;TRUE;0,304749340369393;4007;2;1;0;1
"160";"d96d48e01fed796f796183c040508c42";"Ana Paula";"f";19;0;41;2,81905953661169;2,0943951023932;6873,78131311145;6392,61662119365;1917,78498635809;1;1;1;0,93;0,3;3;6799;1;TRUE;0,203166226912929;5540;2;1;0;1
"161";"d96d48e01fed796f796183c040508c42";"Ana Paula";"f";19;0;42;5,52715535075069;2,0943951023932;8306,9239979247;7725,43931806997;3862,71965903499;0;2;2;0,93;0;2;4385;1;FALSE;0,195250659630607;1467;2;0;0;1
"162";"d96d48e01fed796f796183c040508c42";"Ana Paula";"f";19;0;43;5,5397190911026;-2,0943951023932;7234,35978028158;6510,92380225342;3255,46190112671;0;1;1;0,9;0;2;2139;1;TRUE;0,150395778364116;3930;2;1;0;1
"163";"d96d48e01fed796f796183c040508c42";"Ana Paula";"f";19;0;44;0,125046935049949;-2,0943951023932;7067,45486273978;6360,7093764658;636,07093764658;2;2;2;0,9;0,1;3;3289;2;TRUE;0,246701846965699;2446;2;1;1;0
"164";"d96d48e01fed796f796183c040508c42";"Ana Paula";"f";19;0;45;2,69468872091347;-2,0943951023932;6252,45556694425;4376,71889686098;2626,03133811659;1;1;1;0,7;0,6;3;3421;1;TRUE;0,348284960422164;3496;2;1;0;1
"165";"d96d48e01fed796f796183c040508c42";"Ana Paula";"f";19;0;46;4,28384108885605;2,0943951023932;8183,0942945944;6546,47543567552;1963,94263070266;0;2;2;0,8;0;2;1745;2;TRUE;0,597625329815303;4992;2;1;1;0
"166";"d96d48e01fed796f796183c040508c42";"Ana Paula";"f";19;0;47;0,432865212347345;2,0943951023932;7040,7828083308;6336,70452749772;2534,68181099909;0;2;2;0,9;0;2;3224;2;TRUE;0,451187335092348;3166;2;1;1;0
"167";"d96d48e01fed796f796183c040508c42";"Ana Paula";"f";19;0;48;3,01369668065524;2,0943951023932;7018,66191556441;6316,79572400797;3790,07743440478;2;1;1;0,9;0,6;3;5351;1;TRUE;0,502638522427441;2546;2;1;0;1
"168";"d96d48e01fed796f796183c040508c42";"Ana Paula";"f";19;0;49;3,2285770137679;-2,0943951023932;7421,61835005744;5937,29468004595;2968,64734002297;0;2;2;0,8;0;2;1961;2;TRUE;0,447229551451187;4670;2;1;1;0
"169";"d96d48e01fed796f796183c040508c42";"Ana Paula";"f";19;0;50;2,71126129582881;2,0943951023932;5118,82504107571;4606,94253696814;1842,77701478726;1;2;2;0,9;0,4;3;2679;2;TRUE;0,402374670184697;6593;2;1;1;0
"170";"d96d48e01fed796f796183c040508c42";"Ana Paula";"f";19;0;51;1,02302652823772;-2,0943951023932;8241,60445450682;6593,28356360546;1318,65671272109;1;2;2;0,8;0,2;3;7120;2;TRUE;0,449868073878628;4049;2;1;1;0
"171";"d96d48e01fed796f796183c040508c42";"Ana Paula";"f";19;0;52;3,31242909850583;2,0943951023932;4166,4265832337;3333,14126658696;999,942379976087;1;1;1;0,8;0,3;3;2279;1;TRUE;0,697889182058048;3715;2;1;0;1
"172";"d96d48e01fed796f796183c040508c42";"Ana Paula";"f";19;0;53;1,8660336494156;-2,0943951023932;6736,53625038619;6264,97871285916;3758,9872277155;2;1;1;0,93;0,6;3;7364;2;FALSE;0,451187335092348;3660;2;0;1;0
"173";"d96d48e01fed796f796183c040508c42";"Ana Paula";"f";19;0;54;1,53769039754343;-2,0943951023932;5188,36080180175;4669,52472162158;2334,76236081079;0;2;2;0,9;0;2;2834;2;TRUE;0,350923482849604;3451;2;1;1;0
"174";"d96d48e01fed796f796183c040508c42";"Ana Paula";"f";19;0;55;0,0308319281754818;2,0943951023932;7854,18591657211;6283,34873325768;3141,67436662884;1;1;1;0,8;0,5;3;2215;1;TRUE;0,597625329815303;2777;2;1;0;1
"175";"d96d48e01fed796f796183c040508c42";"Ana Paula";"f";19;0;56;2,95369413375475;-2,0943951023932;5783,24814536073;5378,42077518548;1613,52623255564;0;2;2;0,93;0;2;2562;1;FALSE;0,49868073878628;1586;2;0;0;1
"176";"d96d48e01fed796f796183c040508c42";"Ana Paula";"f";19;0;57;5,77006197299833;-2,0943951023932;7669,29698931245;6902,3672903812;4141,42037422872;2;2;2;0,9;0,6;3;4418;2;TRUE;0,449868073878628;2503;2;1;1;0
"177";"d96d48e01fed796f796183c040508c42";"Ana Paula";"f";19;0;58;1,11787614220919;2,0943951023932;7030,21892297973;4921,15324608581;1968,46129843432;2;2;2;0,7;0,4;3;2078;2;TRUE;0,849604221635884;4117;2;1;1;0
"178";"d96d48e01fed796f796183c040508c42";"Ana Paula";"f";19;0;59;1,69826430398601;-2,0943951023932;6985,92832482654;6636,63190858521;663,663190858521;1;1;1;0,95;0,1;3;3095;2;FALSE;0,700527704485488;3067;2;0;1;0
"179";"d96d48e01fed796f796183c040508c42";"Ana Paula";"f";19;0;60;3,38385566157778;2,0943951023932;9164,16383200264;8522,67236376246;4261,33618188123;1;1;1;0,93;0,5;3;6874;1;TRUE;0,449868073878628;2985;2;1;0;1
"180";"d96d48e01fed796f796183c040508c42";"Ana Paula";"f";19;0;61;5,57795518653831;-2,0943951023932;9680,89338149625;9196,84871242144;2759,05461372643;0;1;1;0,95;0;2;8712;2;FALSE;0,349604221635884;5510;2;0;1;0
"181";"d96d48e01fed796f796183c040508c42";"Ana Paula";"f";19;0;62;2,97179016964867;-2,0943951023932;8822,75522390083;7058,20417912067;2823,28167164827;0;1;1;0,8;0;2;2080;1;TRUE;0,445910290237467;3243;2;1;0;1
"182";"d96d48e01fed796f796183c040508c42";"Ana Paula";"f";19;0;63;2,27129335135608;-2,0943951023932;6904,34027203162;6559,12325843004;1311,82465168601;1;2;2;0,95;0,2;3;1795;2;TRUE;0,348284960422164;2778;2;1;1;0
"183";"d96d48e01fed796f796183c040508c42";"Ana Paula";"f";19;0;64;5,74109154698442;2,0943951023932;8141,58876559169;7571,67755200027;1514,33551040005;2;2;2;0,93;0,2;3;12297;2;TRUE;0,402374670184697;3928;2;1;1;0
"184";"d96d48e01fed796f796183c040508c42";"Ana Paula";"f";19;0;65;6,02932545897712;2,0943951023932;6081,31546353248;4256,92082447274;1277,07624734182;2;1;1;0,7;0,3;3;2593;1;TRUE;0,567282321899736;6799;2;1;0;1
"185";"d96d48e01fed796f796183c040508c42";"Ana Paula";"f";19;0;66;3,61810313744328;2,0943951023932;6241,8810852271;5929,78703096574;1185,95740619315;0;2;2;0,95;0;2;3126;1;FALSE;0,346965699208443;4473;2;0;0;1
"186";"d96d48e01fed796f796183c040508c42";"Ana Paula";"f";19;0;67;3,17550867282734;2,0943951023932;5668,04428067213;5384,64206663852;3230,78523998311;0;2;2;0,95;0;2;7664;1;FALSE;0,054089709762533;1600;2;0;0;1
"187";"d96d48e01fed796f796183c040508c42";"Ana Paula";"f";19;0;68;6,13968745910097;2,0943951023932;7427,32109346123;7055,95503878817;2822,38201551527;1;2;2;0,95;0,4;3;3072;1;FALSE;0,203166226912929;2482;2;0;0;1
"188";"d96d48e01fed796f796183c040508c42";"Ana Paula";"f";19;0;69;6,24029104833108;2,0943951023932;8317,28126494061;7901,41720169358;4740,85032101615;1;1;1;0,95;0,6;3;2748;1;TRUE;0,303430079155673;3172;2;1;0;1
"189";"d96d48e01fed796f796183c040508c42";"Ana Paula";"f";19;0;70;0,70089950243455;2,0943951023932;5294,40238916956;4923,79422192769;492,379422192769;2;1;1;0,93;0,1;3;3733;2;FALSE;0,50131926121372;3081;2;0;1;0
"190";"d96d48e01fed796f796183c040508c42";"Ana Paula";"f";19;0;71;2,48610385581991;-2,0943951023932;5866,16720151854;5455,53549741224;2182,2141989649;0;1;1;0,93;0;2;7667;1;TRUE;0,0329815303430079;2058;2;1;0;1
"191";"d96d48e01fed796f796183c040508c42";"Ana Paula";"f";19;0;72;4,52064654779008;-2,0943951023932;9693,3993954775;9208,72942570362;2762,61882771109;0;2;2;0,95;0;2;3899;1;FALSE;0;1070;2;0;0;1
"192";"d96d48e01fed796f796183c040508c42";"Ana Paula";"f";19;0;73;0,868404412052537;-2,0943951023932;9065,35975775951;8612,09176987153;3444,83670794861;2;1;1;0,95;0,4;3;3841;2;FALSE;0;1484;2;0;1;0
"193";"d96d48e01fed796f796183c040508c42";"Ana Paula";"f";19;0;74;1,82479443874514;2,0943951023932;5141,48133565481;3599,03693495837;1079,71108048751;0;1;1;0,7;0;2;4109;1;TRUE;0,0514511873350923;16998;2;1;0;1
"194";"d96d48e01fed796f796183c040508c42";"Ana Paula";"f";19;0;75;1,68780919364304;2,0943951023932;8923,96675644834;8031,57008080351;803,157008080351;2;1;1;0,9;0,1;3;2404;1;TRUE;0,200527704485488;4772;2;1;0;1
"195";"d96d48e01fed796f796183c040508c42";"Ana Paula";"f";19;0;76;5,51819529143967;2,0943951023932;9875,74123778655;7900,59299022924;3950,29649511462;0;1;1;0,8;0;2;2343;1;TRUE;0,601583113456464;4220;2;1;0;1
"196";"d96d48e01fed796f796183c040508c42";"Ana Paula";"f";19;0;77;4,44542079927429;-2,0943951023932;6315,88140466158;5873,76970633527;1174,75394126705;0;2;2;0,93;0;2;3862;2;TRUE;0,397097625329815;3173;2;1;1;0
"197";"d96d48e01fed796f796183c040508c42";"Ana Paula";"f";19;0;78;4,94866497382293;-2,0943951023932;4613,57790196781;4290,62744883006;1716,25097953202;1;2;2;0,93;0,4;3;2628;2;TRUE;0,506596306068602;11805;2;1;1;0
"198";"d96d48e01fed796f796183c040508c42";"Ana Paula";"f";19;0;79;2,20917213911912;-2,0943951023932;6456,44492725122;4519,51144907585;451,951144907585;2;2;2;0,7;0,1;3;2771;2;TRUE;0,650395778364116;2579;2;1;1;0
"199";"d96d48e01fed796f796183c040508c42";"Ana Paula";"f";19;0;81;2,44118097058531;2,0943951023932;7362,86032336854;6626,57429103169;1325,31485820634;2;1;1;0,9;0,2;3;5935;1;TRUE;0,345646437994723;3256;2;1;0;1
"200";"d96d48e01fed796f796183c040508c42";"Ana Paula";"f";19;0;82;1,18384000336251;2,0943951023932;6216,88372601302;4351,81860820911;870,363721641823;0;2;2;0,7;0;2;2105;2;TRUE;0,399736147757256;4983;2;1;1;0
"201";"d96d48e01fed796f796183c040508c42";"Ana Paula";"f";19;0;83;0,938255125670163;2,0943951023932;7108,4041231368;6752,98391697996;3376,49195848998;1;2;2;0,95;0,5;3;1953;2;TRUE;0,403693931398417;2294;2;1;1;0
"202";"d96d48e01fed796f796183c040508c42";"Ana Paula";"f";19;0;84;4,56074990449725;2,0943951023932;7849,9362931302;5494,95540519114;2747,47770259557;0;1;1;0,7;0;2;2808;1;TRUE;0,449868073878628;1390;2;1;0;1
"203";"d96d48e01fed796f796183c040508c42";"Ana Paula";"f";19;0;85;0,55712435921089;2,0943951023932;6763,90727154816;6087,51654439335;3043,75827219667;2;1;1;0,9;0,5;3;4254;1;TRUE;0,403693931398417;2584;2;1;0;1
"204";"d96d48e01fed796f796183c040508c42";"Ana Paula";"f";19;0;86;1,7361360807149;2,0943951023932;4635,25769920665;3244,68038944465;1622,34019472233;0;2;2;0,7;0;2;2043;2;TRUE;0,474934036939314;5425;2;1;1;0
"205";"d96d48e01fed796f796183c040508c42";"Ana Paula";"f";19;0;87;2,94586896505197;2,0943951023932;7269,08120912374;6905,62714866756;1381,12542973351;2;1;1;0,95;0,2;3;2782;2;FALSE;0,449868073878628;3978;2;0;1;0
"206";"d96d48e01fed796f796183c040508c42";"Ana Paula";"f";19;0;88;3,04679705738654;-2,0943951023932;4521,69789140251;4205,17903900433;1261,5537117013;1;2;2;0,93;0,3;3;2029;2;TRUE;0,703166226912929;5709;2;1;1;0
"207";"d96d48e01fed796f796183c040508c42";"Ana Paula";"f";19;0;89;2,81896858513994;-2,0943951023932;6008,49575346937;4806,7966027755;2884,0779616653;0;2;2;0,8;0;2;3111;2;TRUE;0,296833773087071;4159;2;1;1;0
"208";"d96d48e01fed796f796183c040508c42";"Ana Paula";"f";19;0;90;1,89329811538183;-2,0943951023932;7609,62218263444;6848,65996437099;2054,5979893113;2;1;1;0,9;0,3;3;4876;2;FALSE;0,356200527704486;3248;2;0;1;0
"209";"d96d48e01fed796f796183c040508c42";"Ana Paula";"f";19;0;91;2,767634572789;2,0943951023932;9197,37974414559;8553,5631620554;1710,71263241108;1;1;1;0,93;0,2;3;4525;1;TRUE;0,452506596306069;4818;2;1;0;1
"210";"d96d48e01fed796f796183c040508c42";"Ana Paula";"f";19;0;92;0,518846441710486;2,0943951023932;5100,40092915785;4590,36083624207;1377,10825087262;0;2;2;0,9;0;2;2448;2;TRUE;0,254617414248021;4565;2;1;1;0
"211";"d96d48e01fed796f796183c040508c42";"Ana Paula";"f";19;0;93;5,89608243424104;2,0943951023932;9520,9094883433;6664,63664184031;3998,78198510419;0;2;2;0,7;0;2;2283;2;TRUE;0,449868073878628;3266;2;1;1;0
"212";"d96d48e01fed796f796183c040508c42";"Ana Paula";"f";19;0;94;5,67709041388553;-2,0943951023932;2051,30534345594;1435,91374041916;717,95687020958;1;1;1;0,7;0,5;3;3847;1;TRUE;0,254617414248021;3133;2;1;0;1
"213";"d96d48e01fed796f796183c040508c42";"Ana Paula";"f";19;0;95;0,0190302375451264;-2,0943951023932;9476,40237764147;9002,5822587594;900,25822587594;2;2;2;0,95;0,1;3;6892;2;TRUE;0,240105540897098;2048;2;1;1;0
"214";"d96d48e01fed796f796183c040508c42";"Ana Paula";"f";19;0;96;0,358945458987861;-2,0943951023932;4026,44517650473;3825,12291767949;1147,53687530385;2;2;2;0,95;0,3;3;5141;2;TRUE;0,254617414248021;4109;2;1;1;0
"215";"d96d48e01fed796f796183c040508c42";"Ana Paula";"f";19;0;97;5,86753505981147;2,0943951023932;9727,20255503926;8754,48229953533;2626,3446898606;2;2;2;0,9;0,3;3;3816;2;TRUE;0,445910290237467;4335;2;1;1;0
"216";"d96d48e01fed796f796183c040508c42";"Ana Paula";"f";19;0;98;5,46138849314369;2,0943951023932;6506,72870566994;6181,39227038644;618,139227038644;0;2;2;0,95;0;2;2246;2;TRUE;0,304749340369393;4324;2;1;1;0
"217";"d96d48e01fed796f796183c040508c42";"Ana Paula";"f";19;0;99;2,59091108306415;2,0943951023932;6829,71530199998;6351,63523085998;2540,65409234399;0;2;2;0,93;0;2;2537;2;TRUE;0,304749340369393;3667;2;1;1;0
"218";"d96d48e01fed796f796183c040508c42";"Ana Paula";"f";19;0;100;5,91273426454708;-2,0943951023932;7252,26152547249;6744,60321868942;1348,92064373788;0;1;1;0,93;0;2;4560;2;FALSE;0,146437994722955;2767;2;0;1;0
"219";"d96d48e01fed796f796183c040508c42";"Ana Paula";"f";19;0;101;1,00516847297713;2,0943951023932;5444,22145125972;4899,79930613375;1959,9197224535;2;1;1;0,9;0,4;3;2991;2;FALSE;0,246701846965699;3131;2;0;1;0
"220";"d96d48e01fed796f796183c040508c42";"Ana Paula";"f";19;0;102;1,19117665429949;2,0943951023932;6711,20931980476;6040,08838782428;2416,03535512971;0;1;1;0,9;0;2;2191;2;FALSE;0,253298153034301;5155;2;0;1;0
"221";"d96d48e01fed796f796183c040508c42";"Ana Paula";"f";19;0;103;1,43241813032318;2,0943951023932;6416,63675284634;5133,30940227707;1026,66188045541;2;1;1;0,8;0,2;3;3373;2;FALSE;0,154353562005277;2999;2;0;1;0
"222";"d96d48e01fed796f796183c040508c42";"Ana Paula";"f";19;0;104;6,15913715317801;-2,0943951023932;10758,9003527041;8607,12028216325;1721,42405643265;0;1;1;0,8;0;2;3965;1;TRUE;0,449868073878628;3720;2;1;0;1
"223";"d96d48e01fed796f796183c040508c42";"Ana Paula";"f";19;0;105;5,87413368912134;2,0943951023932;5805,90254882497;5225,31229394247;522,531229394247;0;1;1;0,9;0;2;3780;1;TRUE;0,303430079155673;3378;2;1;0;1
"224";"d96d48e01fed796f796183c040508c42";"Ana Paula";"f";19;0;106;6,02856759808356;2,0943951023932;9056,92254675392;8151,23029207853;4075,61514603926;2;2;2;0,9;0,5;3;5032;2;TRUE;0,497361477572559;3234;2;1;1;0
"225";"d96d48e01fed796f796183c040508c42";"Ana Paula";"f";19;0;107;3,61704796130841;2,0943951023932;6935,5441790653;6588,76697011203;2635,50678804481;0;2;2;0,95;0;2;5214;1;FALSE;0,348284960422164;1835;2;0;0;1
"226";"d96d48e01fed796f796183c040508c42";"Ana Paula";"f";19;0;108;1,57619855678349;-2,0943951023932;9378,34904357992;7502,67923486393;2250,80377045918;0;1;1;0,8;0;2;6824;1;TRUE;0,453825857519789;3645;2;1;0;1
"227";"d96d48e01fed796f796183c040508c42";"Ana Paula";"f";19;0;109;0,211866338084021;-2,0943951023932;6850,60779539074;4795,42545677352;479,542545677352;0;2;2;0,7;0;2;3271;2;TRUE;0,600263852242744;3975;2;1;1;0
"228";"d96d48e01fed796f796183c040508c42";"Ana Paula";"f";19;0;110;5,89705872695015;-2,0943951023932;5785,81551579099;5380,80842968562;2152,32337187425;2;1;1;0,93;0,4;3;2435;2;FALSE;0,448548812664908;2296;2;0;1;0
"229";"d96d48e01fed796f796183c040508c42";"Ana Paula";"f";19;0;111;2,71599052080563;-2,0943951023932;4741,22671940079;3318,85870358055;663,77174071611;1;1;1;0,7;0,2;3;8062;1;TRUE;0,348284960422164;3729;2;1;0;1
"230";"d96d48e01fed796f796183c040508c42";"Ana Paula";"f";19;0;112;5,0513087616997;-2,0943951023932;7722,89770537941;5406,02839376559;2703,01419688279;1;2;2;0,7;0,5;3;2537;2;TRUE;0,548812664907652;4188;2;1;1;0
"231";"d96d48e01fed796f796183c040508c42";"Ana Paula";"f";19;0;113;0,475257727132008;2,0943951023932;9169,54435204435;8527,67624740124;5116,60574844075;0;2;2;0,93;0;2;4730;2;TRUE;0,402374670184697;3364;2;1;1;0
"232";"d96d48e01fed796f796183c040508c42";"Ana Paula";"f";19;0;114;3,77515024431556;-2,0943951023932;6277,60090541821;5963,7208601473;596,37208601473;0;1;1;0,95;0;2;3017;1;TRUE;0,350923482849604;4491;2;1;0;1
"233";"d96d48e01fed796f796183c040508c42";"Ana Paula";"f";19;0;115;1,74146366372848;2,0943951023932;10431,2194424117;7301,8536096882;2920,74144387528;2;1;1;0,7;0,4;3;2109;1;TRUE;0,448548812664908;4110;2;1;0;1
"234";"d96d48e01fed796f796183c040508c42";"Ana Paula";"f";19;0;116;1,8751089632562;2,0943951023932;5691,58609033316;5407,0067858165;3244,2040714899;0;1;1;0,95;0;2;4346;2;FALSE;0,104221635883905;2520;2;0;1;0
"235";"d96d48e01fed796f796183c040508c42";"Ana Paula";"f";19;0;117;1,56128130463629;-2,0943951023932;8844,12198713239;7959,70978841915;4775,82587305149;0;1;1;0,9;0;2;8962;2;FALSE;0,100263852242744;3486;2;0;1;0
"236";"d96d48e01fed796f796183c040508c42";"Ana Paula";"f";19;0;118;3,84953515055679;2,0943951023932;11119,2975370766;10563,3326602228;2112,66653204455;0;1;1;0,95;0;2;5860;1;TRUE;0,149076517150396;1507;2;1;0;1
"237";"d96d48e01fed796f796183c040508c42";"Ana Paula";"f";19;0;119;5,40609338681983;-2,0943951023932;9576,14111217942;7660,91288974353;3064,36515589741;1;1;1;0,8;0,4;3;4605;1;TRUE;0,24934036939314;2192;2;1;0;1
"238";"d96d48e01fed796f796183c040508c42";"Ana Paula";"f";19;0;120;3,81188373298521;2,0943951023932;6765,05290418902;6426,80025897957;3213,40012948979;1;1;1;0,95;0,5;3;8352;1;TRUE;0,253298153034301;5360;2;1;0;1
"239";"9378209069620c0310fab083d9205a0d";"Augusto";"m";25;0;1;4,91766028387303;-2,0943951023932;7598,39785761067;7066,51000757792;2119,95300227338;2;2;2;0,93;0,3;3;11258;2;TRUE;0,497361477572559;2027;3;1;1;0
"240";"9378209069620c0310fab083d9205a0d";"Augusto";"m";25;0;2;1,29254716955048;2,0943951023932;7061,51621941326;6708,44040844259;3354,2202042213;1;1;1;0,95;0,5;3;2675;2;FALSE;0,75065963060686;3710;3;0;1;0
"241";"9378209069620c0310fab083d9205a0d";"Augusto";"m";25;0;3;1,19112969955;-2,0943951023932;4743,83981011342;4506,64781960775;1351,99434588233;1;1;1;0,95;0,3;3;12917;1;TRUE;0,804749340369393;2294;3;1;0;1
"242";"9378209069620c0310fab083d9205a0d";"Augusto";"m";25;0;4;1,36742867614408;2,0943951023932;5438,910844747;5166,96530250964;2066,78612100386;0;1;1;0,95;0;2;6269;2;FALSE;0,602902374670185;4288;3;0;1;0
"243";"9378209069620c0310fab083d9205a0d";"Augusto";"m";25;0;5;4,03958935206414;2,0943951023932;5029,97192159463;4526,97472943516;2263,48736471758;0;1;1;0,9;0;2;9627;1;TRUE;0,75065963060686;1271;3;1;0;1
"244";"9378209069620c0310fab083d9205a0d";"Augusto";"m";25;0;6;3,34228324459926;-2,0943951023932;5542,39863392353;4433,91890713883;2660,3513442833;1;2;2;0,8;0,6;3;2858;2;TRUE;0,850923482849604;2519;3;1;1;0
"245";"9378209069620c0310fab083d9205a0d";"Augusto";"m";25;0;7;1,80023453763837;2,0943951023932;9055,21447288922;8602,45374924476;860,245374924476;0;2;2;0,95;0;2;1387;2;TRUE;0,897097625329815;3318;3;1;1;0
"246";"9378209069620c0310fab083d9205a0d";"Augusto";"m";25;0;8;4,70161379996017;-2,0943951023932;7207,79722729365;6703,2514213831;4021,95085282986;1;1;1;0,93;0,6;3;1340;1;TRUE;0,850923482849604;999;3;1;0;1
"247";"9378209069620c0310fab083d9205a0d";"Augusto";"m";25;0;9;4,38887170082984;-2,0943951023932;6107,17618434733;5679,67385144302;567,967385144302;0;1;1;0,93;0;2;3828;1;TRUE;0,645118733509235;2731;3;1;0;1
"248";"9378209069620c0310fab083d9205a0d";"Augusto";"m";25;0;10;3,09201589801071;2,0943951023932;5915,58523889395;5501,49427217137;3300,89656330282;0;2;2;0,93;0;2;13663;2;TRUE;0,502638522427441;2757;3;1;1;0
"249";"9378209069620c0310fab083d9205a0d";"Augusto";"m";25;0;11;3,38563893736759;2,0943951023932;3870,19264878137;2709,13485414696;541,826970829392;0;1;1;0,7;0;2;1225;1;TRUE;0,700527704485488;2792;3;1;0;1
"250";"9378209069620c0310fab083d9205a0d";"Augusto";"m";25;0;12;5,58099708764166;-2,0943951023932;9616,52624560669;7693,22099648535;769,322099648535;2;1;1;0,8;0,1;3;5434;1;TRUE;0,902374670184697;2157;3;1;0;1
"251";"9378209069620c0310fab083d9205a0d";"Augusto";"m";25;0;13;5,62787594521729;-2,0943951023932;5937,36400506425;5343,62760455782;2137,45104182313;0;2;2;0,9;0;2;1827;2;TRUE;0,701846965699208;4286;3;1;1;0
"252";"9378209069620c0310fab083d9205a0d";"Augusto";"m";25;0;14;0,226403401709464;-2,0943951023932;3075,32568517763;2460,26054814211;492,052109628421;0;1;1;0,8;0;2;4112;1;TRUE;0,602902374670185;2927;3;1;0;1
"253";"9378209069620c0310fab083d9205a0d";"Augusto";"m";25;0;15;3,54542561244259;2,0943951023932;5535,23885248582;3874,66719674007;1937,33359837004;2;2;2;0,7;0,5;3;2200;2;TRUE;0,997361477572559;800;3;1;1;0
"254";"9378209069620c0310fab083d9205a0d";"Augusto";"m";25;0;16;3,88225517570618;-2,0943951023932;5195,44113760876;4935,66908072832;2961,40144843699;0;2;2;0,95;0;2;6576;1;FALSE;0,448548812664908;3806;3;0;0;1
"255";"9378209069620c0310fab083d9205a0d";"Augusto";"m";25;0;17;2,5682222170831;-2,0943951023932;8112,69191976557;7301,42272778901;2190,4268183367;2;2;2;0,9;0,3;3;5689;2;TRUE;0,604221635883905;1585;3;1;1;0
"256";"9378209069620c0310fab083d9205a0d";"Augusto";"m";25;0;18;2,69423482296624;2,0943951023932;8777,68154421849;6144,37708095294;1228,87541619059;0;2;2;0,7;0;2;1451;2;TRUE;0,74934036939314;1287;3;1;1;0
"257";"9378209069620c0310fab083d9205a0d";"Augusto";"m";25;0;19;3,28708725142729;-2,0943951023932;9477,62391970695;8529,86152773625;852,986152773625;2;1;1;0,9;0,1;3;5349;1;TRUE;0,903693931398417;2318;3;1;0;1
"258";"9378209069620c0310fab083d9205a0d";"Augusto";"m";25;0;20;2,11372279730201;2,0943951023932;7759,08311283767;7215,94729493903;2886,37891797561;0;1;1;0,93;0;2;3240;2;FALSE;0,898416886543536;1840;3;0;1;0
"259";"9378209069620c0310fab083d9205a0d";"Augusto";"m";25;0;21;0,75120837617903;2,0943951023932;5608,72588974804;5216,11507746568;1043,22301549314;2;2;2;0,93;0,2;3;2514;2;TRUE;0,697889182058048;3869;3;1;1;0
"260";"9378209069620c0310fab083d9205a0d";"Augusto";"m";25;0;22;5,74947441930377;-2,0943951023932;9090,10377127429;8453,79650728509;3381,51860291404;1;1;1;0,93;0,4;3;6805;1;TRUE;0,899736147757256;3476;3;1;0;1
"261";"9378209069620c0310fab083d9205a0d";"Augusto";"m";25;0;23;2,19107517577708;-2,0943951023932;5043,56529982705;4791,38703483569;1437,41611045071;0;2;2;0,95;0;2;5387;2;TRUE;0,50131926121372;2518;3;1;1;0
"262";"9378209069620c0310fab083d9205a0d";"Augusto";"m";25;0;24;2,20061011636427;-2,0943951023932;7456,43754760056;7083,61567022053;1416,72313404411;2;1;1;0,95;0,2;3;14196;1;TRUE;0,497361477572559;3176;3;1;0;1
"263";"9378209069620c0310fab083d9205a0d";"Augusto";"m";25;0;25;6,0987885344358;-2,0943951023932;7678,19979677961;6142,55983742369;3071,27991871184;0;2;2;0,8;0;2;1714;2;TRUE;0,601583113456464;3703;3;1;1;0
"264";"9378209069620c0310fab083d9205a0d";"Augusto";"m";25;0;26;0,782882830516388;2,0943951023932;9170,18204810059;8253,16384329053;2475,94915298716;0;1;1;0,9;0;2;2564;1;TRUE;0,699208443271768;3439;3;1;0;1
"265";"9378209069620c0310fab083d9205a0d";"Augusto";"m";25;0;27;3,3803524005101;2,0943951023932;8922,95145967654;8030,65631370889;4015,32815685444;0;2;2;0,9;0;2;2723;2;TRUE;0,601583113456464;1894;3;1;1;0
"266";"9378209069620c0310fab083d9205a0d";"Augusto";"m";25;0;28;2,86318812089189;2,0943951023932;8808,38692077367;8367,96757473499;3347,187029894;2;1;1;0,95;0,4;3;1693;2;FALSE;0,701846965699208;4720;3;0;1;0
"267";"9378209069620c0310fab083d9205a0d";"Augusto";"m";25;0;29;5,2442999512237;2,0943951023932;4916,47255217141;3933,17804173713;2359,90682504228;0;1;1;0,8;0;2;1744;1;TRUE;0,899736147757256;1893;3;1;0;1
"268";"9378209069620c0310fab083d9205a0d";"Augusto";"m";25;0;30;3,69741624259273;-2,0943951023932;7453,72223447859;5217,60556413501;521,760556413501;1;2;2;0,7;0,1;3;2867;2;TRUE;0,951187335092348;1831;3;1;1;0
"269";"9378209069620c0310fab083d9205a0d";"Augusto";"m";25;0;31;0,882885656941081;2,0943951023932;7599,43346931724;7219,46179585138;721,946179585138;2;2;2;0,95;0,1;3;5270;2;TRUE;0,602902374670185;1865;3;1;1;0
"270";"9378209069620c0310fab083d9205a0d";"Augusto";"m";25;0;32;2,02221970870685;-2,0943951023932;10806,0770720503;10265,7732184478;4106,30928737911;1;2;2;0,95;0,4;3;2041;2;TRUE;0,50131926121372;2560;3;1;1;0
"271";"9378209069620c0310fab083d9205a0d";"Augusto";"m";25;0;33;1,95170068556672;2,0943951023932;9729,01358102613;7783,2108648209;778,32108648209;0;1;1;0,8;0;2;1732;1;TRUE;0,753298153034301;3917;3;1;0;1
"272";"9378209069620c0310fab083d9205a0d";"Augusto";"m";25;0;34;0,402411396060991;2,0943951023932;5420,77732793321;4878,69959513989;487,869959513989;0;1;1;0,9;0;2;1873;1;TRUE;0,645118733509235;910;3;1;0;1
"273";"9378209069620c0310fab083d9205a0d";"Augusto";"m";25;0;35;4,03088888570867;-2,0943951023932;7982,97819786237;7583,82928796926;4550,29757278155;0;1;1;0,95;0;2;2098;1;TRUE;0,5;4829;3;1;0;1
"274";"9378209069620c0310fab083d9205a0d";"Augusto";"m";25;0;36;1,25833814360955;-2,0943951023932;5307,8366189125;5042,44478796687;1512,73343639006;0;1;1;0,95;0;2;12928;1;TRUE;0,5;1774;3;1;0;1
"275";"9378209069620c0310fab083d9205a0d";"Augusto";"m";25;0;37;3,88803281997903;-2,0943951023932;9531,83839796308;9055,24647806493;5433,14788683896;1;2;2;0,95;0,6;3;6261;2;TRUE;0,800791556728232;3286;3;1;1;0
"276";"9378209069620c0310fab083d9205a0d";"Augusto";"m";25;0;38;0,10897965731343;-2,0943951023932;10339,0671903314;9615,33248700817;1923,06649740163;2;1;1;0,93;0,2;3;10135;2;FALSE;0,74934036939314;1382;3;0;1;0
"277";"9378209069620c0310fab083d9205a0d";"Augusto";"m";25;0;39;2,0090801746847;2,0943951023932;9842,35220543797;7873,88176435038;2362,16452930511;1;1;1;0,8;0,3;3;4903;1;TRUE;0,703166226912929;4127;3;1;0;1
"278";"9378209069620c0310fab083d9205a0d";"Augusto";"m";25;0;40;5,08135274519598;-2,0943951023932;6303,61579470415;5673,25421523373;2836,62710761687;2;1;1;0,9;0,5;3;3209;1;TRUE;0,701846965699208;1237;3;1;0;1
"279";"9378209069620c0310fab083d9205a0d";"Augusto";"m";25;0;41;2,17166645468667;-2,0943951023932;7859,82592055936;7309,63810612021;730,963810612021;1;2;2;0,93;0,1;3;4313;2;TRUE;0,745382585751979;2840;3;1;1;0
"280";"9378209069620c0310fab083d9205a0d";"Augusto";"m";25;0;42;2,98506478533423;-2,0943951023932;9062,07851045332;8155,87065940799;4893,5223956448;1;2;2;0,9;0,6;3;6563;2;TRUE;0,74802110817942;2045;3;1;1;0
"281";"9378209069620c0310fab083d9205a0d";"Augusto";"m";25;0;43;5,49758466373873;2,0943951023932;5798,79352199962;5392,87797545965;3235,72678527579;2;2;2;0,93;0,6;3;5260;1;FALSE;0,604221635883905;2632;3;0;0;1
"282";"9378209069620c0310fab083d9205a0d";"Augusto";"m";25;0;44;5,26054114513177;-2,0943951023932;6614,19287073646;5291,35429658917;1058,27085931783;0;2;2;0,8;0;2;8083;2;TRUE;0,699208443271768;1765;3;1;1;0
"283";"9378209069620c0310fab083d9205a0d";"Augusto";"m";25;0;45;5,46651973203277;2,0943951023932;5338,97912898297;4271,18330318637;1708,47332127455;1;2;2;0,8;0,4;3;2570;2;TRUE;0,697889182058048;1967;3;1;1;0
"284";"9378209069620c0310fab083d9205a0d";"Augusto";"m";25;0;46;0,220147814013488;2,0943951023932;5289,70626217027;3702,79438351919;2221,67663011151;0;2;2;0,7;0;2;1649;2;TRUE;0,802110817941952;5352;3;1;1;0
"285";"9378209069620c0310fab083d9205a0d";"Augusto";"m";25;0;47;1,14794252409366;2,0943951023932;6705,28179558809;5364,22543647047;2145,69017458819;0;1;1;0,8;0;2;2854;1;TRUE;0,895778364116095;783;3;1;0;1
"286";"9378209069620c0310fab083d9205a0d";"Augusto";"m";25;0;48;4,23629418143534;2,0943951023932;9797,72601808324;7838,18081446659;2351,45424433998;1;2;2;0,8;0,3;3;1470;2;TRUE;0,75197889182058;1584;3;1;1;0
"287";"9378209069620c0310fab083d9205a0d";"Augusto";"m";25;0;49;2,32104150332285;-2,0943951023932;6470,09027751342;5823,08124976208;3493,84874985725;0;2;2;0,9;0;2;3058;2;TRUE;0,701846965699208;2175;3;1;1;0
"288";"9378209069620c0310fab083d9205a0d";"Augusto";"m";25;0;50;5,86616929175246;2,0943951023932;10862,3265858945;8689,86126871561;1737,97225374312;1;1;1;0,8;0,2;3;1565;1;TRUE;0,75065963060686;1372;3;1;0;1
"289";"9378209069620c0310fab083d9205a0d";"Augusto";"m";25;0;51;0,394926565026117;2,0943951023932;7282,66999663203;6554,40299696883;655,440299696883;0;2;2;0,9;0;2;9318;2;TRUE;0,597625329815303;1791;3;1;1;0
"290";"9378209069620c0310fab083d9205a0d";"Augusto";"m";25;0;52;1,42791056687342;2,0943951023932;6976,32433111063;5581,0594648885;1116,2118929777;1;2;2;0,8;0,2;3;2334;2;TRUE;0,546174142480211;3655;3;1;1;0
"291";"9378209069620c0310fab083d9205a0d";"Augusto";"m";25;0;53;4,52557605291112;-2,0943951023932;6068,30654045314;5461,47588640783;3276,8855318447;1;1;1;0,9;0,6;3;1911;1;TRUE;0,653034300791557;2756;3;1;0;1
"292";"9378209069620c0310fab083d9205a0d";"Augusto";"m";25;0;54;5,92371109943472;2,0943951023932;6290,20311093579;5661,18279984221;566,118279984221;1;2;2;0,9;0,1;3;10060;2;TRUE;0,643799472295514;2856;3;1;1;0
"293";"9378209069620c0310fab083d9205a0d";"Augusto";"m";25;0;55;2,20800022455982;-2,0943951023932;8614,50655070634;6030,15458549444;2412,06183419778;0;2;2;0,7;0;2;4027;2;TRUE;0,945910290237467;1871;3;1;1;0
"294";"9378209069620c0310fab083d9205a0d";"Augusto";"m";25;0;56;2,94154985766698;2,0943951023932;9601,82743195449;6721,27920236814;3360,63960118407;2;1;1;0,7;0,5;3;2297;1;TRUE;0,901055408970976;5091;3;1;0;1
"295";"9378209069620c0310fab083d9205a0d";"Augusto";"m";25;0;57;4,17025777380546;2,0943951023932;5037,10857088733;4684,51097092522;2342,25548546261;0;2;2;0,93;0;2;2738;2;TRUE;0,497361477572559;2159;3;1;1;0
"296";"9378209069620c0310fab083d9205a0d";"Augusto";"m";25;0;58;2,33348160672459;2,0943951023932;11236,5957481308;10450,0340457616;4180,01361830465;0;2;2;0,93;0;2;1767;2;TRUE;0,654353562005277;2192;3;1;1;0
"297";"9378209069620c0310fab083d9205a0d";"Augusto";"m";25;0;59;5,71512346419734;2,0943951023932;7686,90787345297;5380,83551141708;3228,50130685025;2;1;1;0,7;0,6;3;2241;1;TRUE;0,798153034300792;4752;3;1;0;1
"298";"9378209069620c0310fab083d9205a0d";"Augusto";"m";25;0;60;1,76272603471999;2,0943951023932;7310,29458878864;6944,77985934921;2083,43395780476;2;2;2;0,95;0,3;3;1761;2;TRUE;0,845646437994723;1776;3;1;1;0
"299";"9378209069620c0310fab083d9205a0d";"Augusto";"m";25;0;61;1,89223151841055;2,0943951023932;7876,51050312972;7325,15476791064;732,515476791064;2;1;1;0,93;0,1;3;2518;2;FALSE;0,703166226912929;2152;3;0;1;0
"300";"9378209069620c0310fab083d9205a0d";"Augusto";"m";25;0;62;5,77474685176369;2,0943951023932;6816,47971852157;5453,18377481726;545,318377481726;1;2;2;0,8;0,1;3;2035;2;TRUE;0,75065963060686;2304;3;1;1;0
"301";"9378209069620c0310fab083d9205a0d";"Augusto";"m";25;0;63;1,40777463849234;2,0943951023932;6369,7906583539;5095,83252668312;1528,74975800494;0;1;1;0,8;0;2;1951;1;TRUE;0,604221635883905;2344;3;1;0;1
"302";"9378209069620c0310fab083d9205a0d";"Augusto";"m";25;0;64;6,15884691925651;2,0943951023932;6065,94757058189;4246,16329940732;2123,08164970366;0;2;2;0,7;0;2;998;2;TRUE;0,701846965699208;2188;3;1;1;0
"303";"9378209069620c0310fab083d9205a0d";"Augusto";"m";25;0;65;5,25575266473385;2,0943951023932;8225,31652731304;5757,72156911913;2303,08862764765;1;2;2;0,7;0,4;3;1157;2;TRUE;0,696569920844327;1656;3;1;1;0
"304";"9378209069620c0310fab083d9205a0d";"Augusto";"m";25;0;66;0,667801386312531;-2,0943951023932;6566,27095994944;6237,95741195197;623,795741195197;0;1;1;0,95;0;2;1574;2;FALSE;0,502638522427441;2015;3;0;1;0
"305";"9378209069620c0310fab083d9205a0d";"Augusto";"m";25;0;67;0,672617111563226;-2,0943951023932;11743,5731958463;8220,50123709241;2466,15037112772;2;2;2;0,7;0,3;3;1071;2;TRUE;0,853562005277045;1800;3;1;1;0
"306";"9378209069620c0310fab083d9205a0d";"Augusto";"m";25;0;68;5,08139009473453;-2,0943951023932;8558,00469767933;7702,2042279114;3080,88169116456;0;1;1;0,9;0;2;2189;1;TRUE;0,696569920844327;2870;3;1;0;1
"307";"9378209069620c0310fab083d9205a0d";"Augusto";"m";25;0;69;1,07269206972415;2,0943951023932;9130,9097111978;8674,36422563791;4337,18211281895;0;2;2;0,95;0;2;4307;2;TRUE;0,552770448548813;2806;3;1;1;0
"308";"9378209069620c0310fab083d9205a0d";"Augusto";"m";25;0;70;5,34277722399218;2,0943951023932;6262,18881030806;5009,75104824645;2003,90041929858;0;2;2;0,8;0;2;9817;2;TRUE;0,697889182058048;2513;3;1;1;0
"309";"9378209069620c0310fab083d9205a0d";"Augusto";"m";25;0;71;5,15888280193059;2,0943951023932;7533,9085965757;7157,21316674691;2862,88526669876;0;2;2;0,95;0;2;1441;1;FALSE;0,697889182058048;3198;3;0;0;1
"310";"9378209069620c0310fab083d9205a0d";"Augusto";"m";25;0;72;0,469590975265825;-2,0943951023932;6052,57933811478;5447,32140430331;2178,92856172132;1;1;1;0,9;0,4;3;2044;2;FALSE;0,696569920844327;1826;3;0;1;0
"311";"9378209069620c0310fab083d9205a0d";"Augusto";"m";25;0;73;0,708165841121468;2,0943951023932;4966,11107807069;4717,80552416716;943,561104833432;0;1;1;0,95;0;2;2017;1;TRUE;0,703166226912929;1917;3;1;0;1
"312";"9378209069620c0310fab083d9205a0d";"Augusto";"m";25;0;74;0,917142892475221;2,0943951023932;10256,522856012;7179,56599920841;1435,91319984168;2;2;2;0,7;0,2;3;1510;2;TRUE;0,798153034300792;2973;3;1;1;0
"313";"9378209069620c0310fab083d9205a0d";"Augusto";"m";25;0;75;1,89091303982215;2,0943951023932;5785,27665556158;4049,6936588931;1214,90809766793;1;1;1;0,7;0,3;3;7651;1;TRUE;0,397097625329815;3326;3;1;0;1
"314";"9378209069620c0310fab083d9205a0d";"Augusto";"m";25;0;76;3,98250117312706;2,0943951023932;6334,37889270958;5067,50311416767;1520,2509342503;0;2;2;0,8;0;2;2694;2;TRUE;0,600263852242744;2150;3;1;1;0
"315";"9378209069620c0310fab083d9205a0d";"Augusto";"m";25;0;77;3,43248497232278;-2,0943951023932;9694,46788597068;8725,02109737361;1745,00421947472;0;1;1;0,9;0;2;6149;1;TRUE;0,597625329815303;2799;3;1;0;1
"316";"9378209069620c0310fab083d9205a0d";"Augusto";"m";25;0;78;6,09698052930775;-2,0943951023932;5125,72908881336;4766,92805259642;476,692805259642;0;2;2;0,93;0;2;3816;2;TRUE;0,502638522427441;1079;3;1;1;0
"317";"9378209069620c0310fab083d9205a0d";"Augusto";"m";25;0;79;1,71974800543687;2,0943951023932;5622,40097446743;5228,83290625471;3137,29974375283;0;1;1;0,93;0;2;4720;1;TRUE;0,50131926121372;1526;3;1;0;1
"318";"9378209069620c0310fab083d9205a0d";"Augusto";"m";25;0;80;2,03587621987616;-2,0943951023932;9420,75395323861;6594,52776726702;2637,81110690681;2;1;1;0,7;0,4;3;2709;1;TRUE;0,596306068601583;2789;3;1;0;1
"319";"9378209069620c0310fab083d9205a0d";"Augusto";"m";25;0;81;0,514728136208977;-2,0943951023932;7549,94235344117;6794,94811809705;1358,98962361941;0;2;2;0,9;0;2;4826;2;TRUE;0,697889182058048;1424;3;1;1;0
"320";"9378209069620c0310fab083d9205a0d";"Augusto";"m";25;0;82;5,0683930559903;-2,0943951023932;8116,87536688212;7711,03159853802;4626,61895912281;2;1;1;0,95;0,6;3;1665;1;TRUE;0,703166226912929;2534;3;1;0;1
"321";"9378209069620c0310fab083d9205a0d";"Augusto";"m";25;0;83;0,788153760027465;2,0943951023932;7334,78191971965;6968,04282373367;1393,60856474673;1;2;2;0,95;0,2;3;1603;2;TRUE;0,800791556728232;1604;3;1;1;0
"322";"9378209069620c0310fab083d9205a0d";"Augusto";"m";25;0;84;1,04897091479902;2,0943951023932;8012,08304111425;7611,47888905853;1522,29577781171;0;2;2;0,95;0;2;2462;1;FALSE;0,600263852242744;1374;3;0;0;1
"323";"9378209069620c0310fab083d9205a0d";"Augusto";"m";25;0;85;2,91552664360965;2,0943951023932;6239,92577339281;4991,94061871425;1996,7762474857;2;1;1;0,8;0,4;3;1777;1;TRUE;0,601583113456464;3247;3;1;0;1
"324";"9378209069620c0310fab083d9205a0d";"Augusto";"m";25;0;86;2,40065852871805;2,0943951023932;4686,74137863672;4452,40430970488;2226,20215485244;0;1;1;0,95;0;2;2060;2;FALSE;0,497361477572559;1367;3;0;1;0
"325";"9378209069620c0310fab083d9205a0d";"Augusto";"m";25;0;87;0,324292106026915;-2,0943951023932;9550,67763450474;8882,1302000894;2664,63906002682;1;1;1;0,93;0,3;3;9599;2;FALSE;0,601583113456464;2414;3;0;1;0
"326";"9378209069620c0310fab083d9205a0d";"Augusto";"m";25;0;88;2,85647976210107;2,0943951023932;8104,31101104903;6483,44880883923;3241,72440441961;1;1;1;0,8;0,5;3;1871;1;TRUE;0,803430079155673;1927;3;1;0;1
"327";"9378209069620c0310fab083d9205a0d";"Augusto";"m";25;0;89;4,99739424388249;-2,0943951023932;6326,30983354897;5883,46814520055;2941,73407260027;0;1;1;0,93;0;2;2220;1;TRUE;0,5;1471;3;1;0;1
"328";"9378209069620c0310fab083d9205a0d";"Augusto";"m";25;0;90;2,66166547180589;2,0943951023932;9267,72768880266;8340,9549199224;4170,4774599612;1;2;2;0,9;0,5;3;1416;2;TRUE;0,753298153034301;2119;3;1;1;0
"329";"9378209069620c0310fab083d9205a0d";"Augusto";"m";25;0;91;2,71879218473903;2,0943951023932;7586,3928633182;6069,11429065456;3034,55714532728;0;1;1;0,8;0;2;2342;1;TRUE;0,597625329815303;1711;3;1;0;1
"330";"9378209069620c0310fab083d9205a0d";"Augusto";"m";25;0;92;0,83044582330642;-2,0943951023932;5145,93065705205;4631,33759134684;1389,40127740405;2;1;1;0,9;0,3;3;2323;1;TRUE;0,496042216358839;1408;3;1;0;1
"331";"9378209069620c0310fab083d9205a0d";"Augusto";"m";25;0;93;0,804933803361638;2,0943951023932;6352,62630106683;4446,83841074678;444,683841074678;0;2;2;0,7;0;2;2405;2;TRUE;0,753298153034301;1697;3;1;1;0
"332";"9378209069620c0310fab083d9205a0d";"Augusto";"m";25;0;94;6,15686801687952;2,0943951023932;7652,17739184914;5356,5241742944;1071,30483485888;2;1;1;0,7;0,2;3;1663;1;TRUE;0,799472295514512;3875;3;1;0;1
"333";"9378209069620c0310fab083d9205a0d";"Augusto";"m";25;0;95;0,863858328568654;2,0943951023932;9259,46866380181;7407,57493104145;4444,54495862487;1;1;1;0,8;0,6;3;3400;1;TRUE;0,647757255936675;2190;3;1;0;1
"334";"9378209069620c0310fab083d9205a0d";"Augusto";"m";25;0;96;2,5199438825871;-2,0943951023932;6682,90112429814;4678,0307870087;2339,01539350435;0;1;1;0,7;0;2;2474;1;TRUE;0,550131926121372;2215;3;1;0;1
"335";"9378209069620c0310fab083d9205a0d";"Augusto";"m";25;0;97;2,11325493012805;-2,0943951023932;8059,09342664175;7656,13875530966;765,613875530966;2;1;1;0,95;0,1;3;1402;2;FALSE;0,75065963060686;728;3;0;1;0
"336";"9378209069620c0310fab083d9205a0d";"Augusto";"m";25;0;98;1,18897577705132;-2,0943951023932;4662,04633373115;4195,84170035803;1258,75251010741;0;2;2;0,9;0;2;2163;2;TRUE;0,600263852242744;1917;3;1;1;0
"337";"9378209069620c0310fab083d9205a0d";"Augusto";"m";25;0;99;3,39240074089595;-2,0943951023932;4480,99433732517;4167,32473371241;1250,19742011372;0;1;1;0,93;0;2;2672;1;TRUE;0,452506596306069;2782;3;1;0;1
"338";"9378209069620c0310fab083d9205a0d";"Augusto";"m";25;0;100;3,28492930144948;-2,0943951023932;7109,49969253037;4976,64978477126;1492,99493543138;0;1;1;0,7;0;2;1910;1;TRUE;0,548812664907652;2054;3;1;0;1
"339";"9378209069620c0310fab083d9205a0d";"Augusto";"m";25;0;101;3,3828511605873;2,0943951023932;8180,07297239283;7771,06932377319;3885,53466188659;1;2;2;0,95;0,5;3;2984;2;TRUE;0,604221635883905;1231;3;1;1;0
"340";"9378209069620c0310fab083d9205a0d";"Augusto";"m";25;0;102;0,315578262116339;2,0943951023932;5814,42987106286;4070,100909744;2442,0605458464;1;2;2;0,7;0,6;3;6824;2;TRUE;0,795514511873351;1191;3;1;1;0
"341";"9378209069620c0310fab083d9205a0d";"Augusto";"m";25;0;103;6,05790467044927;-2,0943951023932;9660,88427070167;8984,62237175256;1796,92447435051;0;2;2;0,93;0;2;3464;2;TRUE;0,502638522427441;2055;3;1;1;0
"342";"9378209069620c0310fab083d9205a0d";"Augusto";"m";25;0;104;1,49690527784405;-2,0943951023932;10181,7822000788;7127,24754005517;2138,17426201655;0;2;2;0,7;0;2;1316;2;TRUE;0,700527704485488;3161;3;1;1;0
"343";"9378209069620c0310fab083d9205a0d";"Augusto";"m";25;0;105;3,52722005629578;-2,0943951023932;7806,86592906566;7026,17933615909;1405,23586723182;1;1;1;0,9;0,2;3;3131;1;TRUE;0,795514511873351;2628;3;1;0;1
"344";"9378209069620c0310fab083d9205a0d";"Augusto";"m";25;0;106;2,25043083366419;-2,0943951023932;5267,26961401318;4898,56074103226;2449,28037051613;2;1;1;0,93;0,5;3;3125;1;TRUE;0,596306068601583;3096;3;1;0;1
"345";"9378209069620c0310fab083d9205a0d";"Augusto";"m";25;0;107;0,798580706228734;2,0943951023932;5593,46179557951;5034,11561602156;3020,46936961293;0;1;1;0,9;0;2;3040;1;TRUE;0,554089709762533;1807;3;1;0;1
"346";"9378209069620c0310fab083d9205a0d";"Augusto";"m";25;0;108;5,28843348727957;2,0943951023932;8998,83258555496;6299,18280988848;629,918280988848;0;1;1;0,7;0;2;1717;1;TRUE;0,647757255936675;950;3;1;0;1
"347";"9378209069620c0310fab083d9205a0d";"Augusto";"m";25;0;109;1,32509807704503;2,0943951023932;10641,5619393478;9577,40574541306;1915,48114908261;2;2;2;0,9;0,2;3;3427;2;TRUE;0,699208443271768;3037;3;1;1;0
"348";"9378209069620c0310fab083d9205a0d";"Augusto";"m";25;0;110;2,93309352570033;2,0943951023932;10521,4864605426;9784,98240830464;2935,49472249139;0;2;2;0,93;0;2;6281;2;TRUE;0,696569920844327;2752;3;1;1;0
"349";"9378209069620c0310fab083d9205a0d";"Augusto";"m";25;0;111;4,97725634522074;-2,0943951023932;8719,19374918539;8108,85018674241;4054,42509337121;1;2;2;0,93;0,5;3;1660;2;TRUE;0,798153034300792;2814;3;1;1;0
"350";"9378209069620c0310fab083d9205a0d";"Augusto";"m";25;0;112;0,877659607405561;2,0943951023932;9004,49275993997;7203,59420795198;3601,79710397599;1;2;2;0,8;0,5;3;1486;2;TRUE;0,753298153034301;1918;3;1;1;0
"351";"9378209069620c0310fab083d9205a0d";"Augusto";"m";25;0;113;6,01538370658065;2,0943951023932;7241,23021227332;5068,86114859133;3041,3166891548;0;1;1;0,7;0;2;1417;1;TRUE;0,703166226912929;1290;3;1;0;1
"352";"9378209069620c0310fab083d9205a0d";"Augusto";"m";25;0;114;2,23666249195145;-2,0943951023932;6176,9531847145;5744,56646178449;1148,9132923569;0;1;1;0,93;0;2;2368;2;FALSE;0,50131926121372;1645;3;0;1;0
"353";"9378209069620c0310fab083d9205a0d";"Augusto";"m";25;0;115;6,19218527928591;-2,0943951023932;4268,0167020513;3414,41336164104;2048,64801698462;0;2;2;0,8;0;2;1846;2;TRUE;0,552770448548813;1654;3;1;1;0
"354";"9378209069620c0310fab083d9205a0d";"Augusto";"m";25;0;116;4,92598540097995;2,0943951023932;8974,58448752762;6282,20914126933;628,220914126933;1;1;1;0,7;0,1;3;1576;1;TRUE;0,803430079155673;3118;3;1;0;1
"355";"9378209069620c0310fab083d9205a0d";"Augusto";"m";25;0;117;3,37980014589648;-2,0943951023932;6498,41982198658;5198,73585758926;519,873585758927;0;2;2;0,8;0;2;1671;2;TRUE;0,697889182058048;928;3;1;1;0
"356";"9378209069620c0310fab083d9205a0d";"Augusto";"m";25;0;118;0,104607876187562;2,0943951023932;7971,16549248227;5579,81584473759;2231,92633789504;0;1;1;0,7;0;2;2671;1;TRUE;0,697889182058048;2120;3;1;0;1
"357";"9378209069620c0310fab083d9205a0d";"Augusto";"m";25;0;119;1,67694498639183;2,0943951023932;4030,54816086008;3627,49334477408;1450,99733790963;1;2;2;0,9;0,4;3;3245;2;TRUE;0,703166226912929;2375;3;1;1;0
"358";"9378209069620c0310fab083d9205a0d";"Augusto";"m";25;0;120;0,587614948525266;2,0943951023932;7290,93497133324;6780,56952333991;2712,22780933597;1;2;2;0,93;0,4;3;2568;2;TRUE;0,754617414248021;5085;3;1;1;0
"359";"190679de0fe52136018ef4bffdf3cfdd";"Lautaro Nuez Cayrol";"m";22;0;1;3,83612033031731;2,0943951023932;5077,00918310695;3553,90642817486;2132,34385690492;0;1;1;0,7;0;2;1251;1;TRUE;1;2699;4;1;0;1
"360";"190679de0fe52136018ef4bffdf3cfdd";"Lautaro Nuez Cayrol";"m";22;0;2;2,42856750404649;2,0943951023932;5045,54032177674;3531,87822524372;353,187822524372;0;2;2;0,7;0;2;1242;2;TRUE;1;1498;4;1;1;0
"361";"190679de0fe52136018ef4bffdf3cfdd";"Lautaro Nuez Cayrol";"m";22;0;3;2,41134562889841;-2,0943951023932;9461,10900615027;8514,99810553524;851,499810553524;0;1;1;0,9;0;2;1954;1;TRUE;0,952522255192878;1541;4;1;0;1
"362";"190679de0fe52136018ef4bffdf3cfdd";"Lautaro Nuez Cayrol";"m";22;0;4;5,99770884993326;2,0943951023932;5579,45430745053;5188,89250592899;2075,5570023716;0;1;1;0,93;0;2;7771;2;FALSE;0,765578635014837;1834;4;0;1;0
"363";"190679de0fe52136018ef4bffdf3cfdd";"Lautaro Nuez Cayrol";"m";22;0;5;3,74667956672558;-2,0943951023932;7094,10829438333;6384,697464945;2553,878985978;1;2;2;0,9;0,4;3;1867;2;TRUE;0,970326409495549;2170;4;1;1;0
"364";"190679de0fe52136018ef4bffdf3cfdd";"Lautaro Nuez Cayrol";"m";22;0;6;0,218563370181099;2,0943951023932;8154,96377853663;5708,47464497564;2854,23732248782;1;1;1;0,7;0,5;3;1191;1;TRUE;1;1254;4;1;0;1
"365";"190679de0fe52136018ef4bffdf3cfdd";"Lautaro Nuez Cayrol";"m";22;0;7;0,437491322747779;-2,0943951023932;5749,42461805652;5461,9533871537;2184,78135486148;0;2;2;0,95;0;2;3683;2;TRUE;0,888724035608309;1300;4;1;1;0
"366";"190679de0fe52136018ef4bffdf3cfdd";"Lautaro Nuez Cayrol";"m";22;0;8;2,25161798299734;2,0943951023932;8015,04417048648;6412,03533638919;641,203533638919;2;2;2;0,8;0,1;3;1658;2;TRUE;0,977744807121662;740;4;1;1;0
"367";"190679de0fe52136018ef4bffdf3cfdd";"Lautaro Nuez Cayrol";"m";22;0;9;3,67002506271721;2,0943951023932;9414,34010853637;8472,90609768273;1694,58121953655;0;1;1;0,9;0;2;1695;1;TRUE;0,759643916913947;914;4;1;0;1
"368";"190679de0fe52136018ef4bffdf3cfdd";"Lautaro Nuez Cayrol";"m";22;0;10;0,912287437546164;-2,0943951023932;8597,28410252965;6018,09887177075;2407,2395487083;2;2;2;0,7;0,4;3;1435;2;TRUE;0,902077151335312;1733;4;1;1;0
"369";"190679de0fe52136018ef4bffdf3cfdd";"Lautaro Nuez Cayrol";"m";22;0;11;3,64365181922251;-2,0943951023932;8887,84364589089;7110,27491671271;2844,10996668508;0;1;1;0,8;0;2;1621;1;TRUE;0,925816023738872;781;4;1;0;1
"370";"190679de0fe52136018ef4bffdf3cfdd";"Lautaro Nuez Cayrol";"m";22;0;12;4,52895102290831;-2,0943951023932;5936,33886107335;4155,43720275135;1246,6311608254;0;2;2;0,7;0;2;1218;2;TRUE;0,945103857566766;1349;4;1;1;0
"371";"190679de0fe52136018ef4bffdf3cfdd";"Lautaro Nuez Cayrol";"m";22;0;13;1,96991048639423;-2,0943951023932;7386,93532440504;6648,24179196453;1994,47253758936;0;2;2;0,9;0;2;1089;2;TRUE;0,956973293768546;1046;4;1;1;0
"372";"190679de0fe52136018ef4bffdf3cfdd";"Lautaro Nuez Cayrol";"m";22;0;14;1,60474484434643;-2,0943951023932;9843,91527254477;9351,71950891753;935,171950891753;1;1;1;0,95;0,1;3;1602;1;TRUE;0,792284866468843;2828;4;1;0;1
"373";"190679de0fe52136018ef4bffdf3cfdd";"Lautaro Nuez Cayrol";"m";22;0;15;3,23386958952892;2,0943951023932;8431,05371951312;7587,94834756181;3035,17933902472;1;1;1;0,9;0,4;3;1253;1;TRUE;0,869436201780415;1749;4;1;0;1
"374";"190679de0fe52136018ef4bffdf3cfdd";"Lautaro Nuez Cayrol";"m";22;0;16;0,101256198114947;2,0943951023932;6318,39762811989;4422,87833968393;1326,86350190518;0;1;1;0,7;0;2;1332;1;TRUE;0,893175074183976;1269;4;1;0;1
"375";"190679de0fe52136018ef4bffdf3cfdd";"Lautaro Nuez Cayrol";"m";22;0;17;1,38025761772916;2,0943951023932;8519,77294465721;7923,38883853121;792,338883853121;2;2;2;0,93;0,1;3;1506;2;TRUE;0,839762611275964;1406;4;1;1;0
"376";"190679de0fe52136018ef4bffdf3cfdd";"Lautaro Nuez Cayrol";"m";22;0;18;1,75036367447272;2,0943951023932;10697,6106222495;9948,77787869203;994,877787869203;0;1;1;0,93;0;2;3661;1;TRUE;0,71513353115727;1317;4;1;0;1
"377";"190679de0fe52136018ef4bffdf3cfdd";"Lautaro Nuez Cayrol";"m";22;0;19;6,18201542041339;-2,0943951023932;8035,19601673577;5624,63721171504;562,463721171504;2;2;2;0,7;0,1;3;1212;2;TRUE;0,94213649851632;1005;4;1;1;0
"378";"190679de0fe52136018ef4bffdf3cfdd";"Lautaro Nuez Cayrol";"m";22;0;20;2,21999343575879;-2,0943951023932;7800,9540833556;7254,88729752071;1450,97745950414;0;1;1;0,93;0;2;3609;2;FALSE;0,732937685459941;1282;4;0;1;0
"379";"190679de0fe52136018ef4bffdf3cfdd";"Lautaro Nuez Cayrol";"m";22;0;21;3,14785491929129;-2,0943951023932;10493,6393921719;8394,91151373752;3357,96460549501;0;2;2;0,8;0;2;1203;2;TRUE;0,636498516320475;1055;4;1;1;0
"380";"190679de0fe52136018ef4bffdf3cfdd";"Lautaro Nuez Cayrol";"m";22;0;22;3,89389497701738;2,0943951023932;9167,95832866604;8709,56041223273;870,956041223274;0;2;2;0,95;0;2;2454;2;TRUE;0,789317507418398;1836;4;1;1;0
"381";"190679de0fe52136018ef4bffdf3cfdd";"Lautaro Nuez Cayrol";"m";22;0;23;2,29666691222219;-2,0943951023932;9574,10688012856;9095,40153612213;909,540153612213;0;1;1;0,95;0;2;4625;1;TRUE;0,706231454005935;2933;4;1;0;1
"382";"190679de0fe52136018ef4bffdf3cfdd";"Lautaro Nuez Cayrol";"m";22;0;24;5,88288800983778;2,0943951023932;9431,2195503964;8488,09759535676;4244,04879767838;1;2;2;0,9;0,5;3;1470;2;TRUE;0,826409495548961;1628;4;1;1;0
"383";"190679de0fe52136018ef4bffdf3cfdd";"Lautaro Nuez Cayrol";"m";22;0;25;4,42790468371824;2,0943951023932;8890,19856899932;8001,17871209939;1600,23574241988;1;2;2;0,9;0,2;3;5414;1;FALSE;0,654302670623145;1445;4;0;0;1
"384";"190679de0fe52136018ef4bffdf3cfdd";"Lautaro Nuez Cayrol";"m";22;0;26;0,847594040964472;-2,0943951023932;8816,2214581173;7934,59931230557;4760,75958738334;0;1;1;0,9;0;2;1407;1;TRUE;0,817507418397626;1863;4;1;0;1
"385";"190679de0fe52136018ef4bffdf3cfdd";"Lautaro Nuez Cayrol";"m";22;0;27;4,79904311557618;-2,0943951023932;8618,79235855025;8187,85274062274;2456,35582218682;1;1;1;0,95;0,3;3;1455;2;FALSE;0,826409495548961;1566;4;0;1;0
"386";"190679de0fe52136018ef4bffdf3cfdd";"Lautaro Nuez Cayrol";"m";22;0;28;4,66048278749409;-2,0943951023932;2766,72052720056;1936,70436904039;774,681747616157;0;1;1;0,7;0;2;1638;1;TRUE;0,859050445103858;877;4;1;0;1
"387";"190679de0fe52136018ef4bffdf3cfdd";"Lautaro Nuez Cayrol";"m";22;0;29;6,06344591606551;2,0943951023932;10228,9835323427;8183,18682587413;4909,91209552448;2;2;2;0,8;0,6;3;1143;2;TRUE;0,867952522255193;1390;4;1;1;0
"388";"190679de0fe52136018ef4bffdf3cfdd";"Lautaro Nuez Cayrol";"m";22;0;30;1,06819173052239;-2,0943951023932;6545,47855614219;5890,93070052797;589,093070052797;2;1;1;0,9;0,1;3;1614;1;TRUE;0,850148367952522;839;4;1;0;1
"389";"190679de0fe52136018ef4bffdf3cfdd";"Lautaro Nuez Cayrol";"m";22;0;31;3,20957868784596;2,0943951023932;8581,42042556436;7980,72099577485;3990,36049788743;0;1;1;0,93;0;2;1867;1;TRUE;0,759643916913947;1702;4;1;0;1
"390";"190679de0fe52136018ef4bffdf3cfdd";"Lautaro Nuez Cayrol";"m";22;0;32;0,32857548054676;-2,0943951023932;7293,51563540578;5105,46094478405;2552,73047239202;0;1;1;0,7;0;2;924;1;TRUE;0,738872403560831;1150;4;1;0;1
"391";"190679de0fe52136018ef4bffdf3cfdd";"Lautaro Nuez Cayrol";"m";22;0;33;5,28646313751658;2,0943951023932;5091,966572267;3564,3766005869;712,87532011738;0;1;1;0,7;0;2;1480;1;TRUE;0,882789317507418;966;4;1;0;1
"392";"190679de0fe52136018ef4bffdf3cfdd";"Lautaro Nuez Cayrol";"m";22;0;34;2,22905785539523;2,0943951023932;10497,321333857;9972,45526716413;2991,73658014924;0;2;2;0,95;0;2;2427;2;TRUE;0,643916913946588;2182;4;1;1;0
"393";"190679de0fe52136018ef4bffdf3cfdd";"Lautaro Nuez Cayrol";"m";22;0;35;4,19464833515719;-2,0943951023932;7003,82998611966;4902,68099028376;490,268099028377;1;1;1;0,7;0,1;3;1886;1;TRUE;0,879821958456973;1268;4;1;0;1
"394";"190679de0fe52136018ef4bffdf3cfdd";"Lautaro Nuez Cayrol";"m";22;0;36;0,906951174203147;2,0943951023932;7818,29164131148;7271,01122641968;3635,50561320984;2;2;2;0,93;0,5;3;1230;2;TRUE;0,921364985163205;1285;4;1;1;0
"395";"190679de0fe52136018ef4bffdf3cfdd";"Lautaro Nuez Cayrol";"m";22;0;37;5,38251069329519;-2,0943951023932;10231,5560066941;9719,97820635941;3887,99128254376;0;1;1;0,95;0;2;2945;1;TRUE;0,740356083086053;2349;4;1;0;1
"396";"190679de0fe52136018ef4bffdf3cfdd";"Lautaro Nuez Cayrol";"m";22;0;38;3,5830527262428;2,0943951023932;5315,35509840274;4943,28024151454;2471,64012075727;1;1;1;0,93;0,5;3;4213;1;TRUE;0,599406528189911;2958;4;1;0;1
"397";"190679de0fe52136018ef4bffdf3cfdd";"Lautaro Nuez Cayrol";"m";22;0;39;4,77092304850077;2,0943951023932;7806,1239678027;5464,28677746189;1639,28603323857;1;1;1;0,7;0,3;3;1167;1;TRUE;0,933234421364985;989;4;1;0;1
"398";"190679de0fe52136018ef4bffdf3cfdd";"Lautaro Nuez Cayrol";"m";22;0;40;1,73277562901017;-2,0943951023932;5453,14036873025;3817,19825811117;1526,87930324447;2;1;1;0,7;0,4;3;1770;1;TRUE;0,948071216617211;1547;4;1;0;1
"399";"190679de0fe52136018ef4bffdf3cfdd";"Lautaro Nuez Cayrol";"m";22;0;41;4,57344921391566;2,0943951023932;7018,84510132666;6667,90284626033;4000,7417077562;0;2;2;0,95;0;2;3100;2;TRUE;0,661721068249258;1247;4;1;1;0
"400";"190679de0fe52136018ef4bffdf3cfdd";"Lautaro Nuez Cayrol";"m";22;0;42;3,16185414581912;-2,0943951023932;6715,27201668068;6043,74481501261;3021,87240750631;0;2;2;0,9;0;2;3660;2;TRUE;0,70919881305638;2121;4;1;1;0
"401";"190679de0fe52136018ef4bffdf3cfdd";"Lautaro Nuez Cayrol";"m";22;0;43;0,205357048212241;2,0943951023932;7666,44709043407;6133,15767234726;1226,63153446945;0;2;2;0,8;0;2;1508;2;TRUE;0,833827893175074;1557;4;1;1;0
"402";"190679de0fe52136018ef4bffdf3cfdd";"Lautaro Nuez Cayrol";"m";22;0;44;3,49765095399138;2,0943951023932;8409,09255646755;6727,27404517404;3363,63702258702;0;1;1;0,8;0;2;1388;1;TRUE;0,934718100890208;932;4;1;0;1
"403";"190679de0fe52136018ef4bffdf3cfdd";"Lautaro Nuez Cayrol";"m";22;0;45;2,34624861641351;-2,0943951023932;5784,42042732228;5495,19940595616;2747,59970297808;1;2;2;0,95;0,5;3;1275;2;TRUE;0,853115727002967;2140;4;1;1;0
"404";"190679de0fe52136018ef4bffdf3cfdd";"Lautaro Nuez Cayrol";"m";22;0;46;1,46685205104042;2,0943951023932;6793,34449529286;6114,01004576358;1222,80200915272;0;2;2;0,9;0;2;1433;2;TRUE;0,891691394658754;1149;4;1;1;0
"405";"190679de0fe52136018ef4bffdf3cfdd";"Lautaro Nuez Cayrol";"m";22;0;47;4,14973797377865;-2,0943951023932;5944,04893551523;5349,64404196371;1604,89321258911;1;1;1;0,9;0,3;3;1904;1;TRUE;0,810089020771513;2002;4;1;0;1
"406";"190679de0fe52136018ef4bffdf3cfdd";"Lautaro Nuez Cayrol";"m";22;0;48;0,133161265586017;2,0943951023932;10433,9536592726;7303,76756149083;1460,75351229817;1;2;2;0,7;0,2;3;1239;2;TRUE;0,983679525222552;2562;4;1;1;0
"407";"190679de0fe52136018ef4bffdf3cfdd";"Lautaro Nuez Cayrol";"m";22;0;49;2,47356417011662;2,0943951023932;7804,72908711665;6243,78326969332;1873,134980908;0;1;1;0,8;0;2;2130;1;TRUE;0,931750741839763;3029;4;1;0;1
"408";"190679de0fe52136018ef4bffdf3cfdd";"Lautaro Nuez Cayrol";"m";22;0;50;4,54354956814247;-2,0943951023932;8178,83338398984;7769,89171479034;1553,97834295807;2;1;1;0,95;0,2;3;2686;1;TRUE;0,666172106824926;870;4;1;0;1
"409";"190679de0fe52136018ef4bffdf3cfdd";"Lautaro Nuez Cayrol";"m";22;0;51;3,98768804360932;2,0943951023932;5693,91557471768;3985,74090230238;1594,29636092095;0;2;2;0,7;0;2;1157;2;TRUE;0,833827893175074;1790;4;1;1;0
"410";"190679de0fe52136018ef4bffdf3cfdd";"Lautaro Nuez Cayrol";"m";22;0;52;0,176010821041166;-2,0943951023932;10423,9906655877;8339,19253247013;2501,75775974104;2;1;1;0,8;0,3;3;1100;1;TRUE;0,882789317507418;1135;4;1;0;1
"411";"190679de0fe52136018ef4bffdf3cfdd";"Lautaro Nuez Cayrol";"m";22;0;53;2,78304472759161;2,0943951023932;9557,96998773916;8602,17298896524;860,217298896524;2;2;2;0,9;0,1;3;1721;2;TRUE;0,903560830860534;1677;4;1;1;0
"412";"190679de0fe52136018ef4bffdf3cfdd";"Lautaro Nuez Cayrol";"m";22;0;54;3,59334380407838;2,0943951023932;5356,87003917692;4981,88913643454;1494,56674093036;1;1;1;0,93;0,3;3;1348;1;TRUE;0,945103857566766;2052;4;1;0;1
"413";"190679de0fe52136018ef4bffdf3cfdd";"Lautaro Nuez Cayrol";"m";22;0;55;6,05845042023057;2,0943951023932;9065,11261838426;8430,55473509737;5058,33284105842;2;1;1;0,93;0,6;3;3225;2;FALSE;0,890207715133531;2438;4;0;1;0
"414";"190679de0fe52136018ef4bffdf3cfdd";"Lautaro Nuez Cayrol";"m";22;0;56;5,84186083481899;2,0943951023932;8674,20570625045;6939,36456500036;693,936456500036;0;1;1;0,8;0;2;1231;1;TRUE;0,961424332344214;1468;4;1;0;1
"415";"190679de0fe52136018ef4bffdf3cfdd";"Lautaro Nuez Cayrol";"m";22;0;57;5,75689185174285;-2,0943951023932;6604,39197153907;4623,07438007735;2773,84462804641;0;2;2;0,7;0;2;1302;2;TRUE;0,952522255192878;1373;4;1;1;0
"416";"190679de0fe52136018ef4bffdf3cfdd";"Lautaro Nuez Cayrol";"m";22;0;58;4,44283156697956;2,0943951023932;6655,62824273755;5324,50259419004;2662,25129709502;1;2;2;0,8;0,5;3;1097;2;TRUE;0,971810089020771;3717;4;1;1;0
"417";"190679de0fe52136018ef4bffdf3cfdd";"Lautaro Nuez Cayrol";"m";22;0;59;1,1285669989702;-2,0943951023932;7104,04461529528;5683,23569223622;2273,29427689449;1;1;1;0,8;0,4;3;1172;1;TRUE;0,951038575667656;1958;4;1;0;1
"418";"190679de0fe52136018ef4bffdf3cfdd";"Lautaro Nuez Cayrol";"m";22;0;60;5,93212069228207;2,0943951023932;7992,70653549543;6394,16522839634;3836,4991370378;0;2;2;0,8;0;2;1081;2;TRUE;0,964391691394659;2366;4;1;1;0
"419";"190679de0fe52136018ef4bffdf3cfdd";"Lautaro Nuez Cayrol";"m";22;0;61;3,87889728623277;-2,0943951023932;4236,92562165083;3813,23305948575;1143,96991784572;0;1;1;0,9;0;2;1503;1;TRUE;0,954005934718101;2404;4;1;0;1
"420";"190679de0fe52136018ef4bffdf3cfdd";"Lautaro Nuez Cayrol";"m";22;0;62;2,39664331181923;2,0943951023932;6013,00356385431;5712,35338566159;1713,70601569848;2;2;2;0,95;0,3;3;1897;2;TRUE;1;1893;4;1;1;0
"421";"190679de0fe52136018ef4bffdf3cfdd";"Lautaro Nuez Cayrol";"m";22;0;63;4,31683205286493;-2,0943951023932;5804,19499850151;5397,90134860641;1619,37040458192;2;2;2;0,93;0,3;3;1451;2;TRUE;1;647;4;1;1;0
"422";"190679de0fe52136018ef4bffdf3cfdd";"Lautaro Nuez Cayrol";"m";22;0;64;1,18103089507513;-2,0943951023932;9001,75706598454;8371,63407136562;1674,32681427312;1;1;1;0,93;0,2;3;2099;1;TRUE;0,946587537091988;1622;4;1;0;1
"423";"190679de0fe52136018ef4bffdf3cfdd";"Lautaro Nuez Cayrol";"m";22;0;65;5,62172240623044;2,0943951023932;9776,47780457413;7821,18224365931;3910,59112182965;0;2;2;0,8;0;2;1127;2;TRUE;1;767;4;1;1;0
"424";"190679de0fe52136018ef4bffdf3cfdd";"Lautaro Nuez Cayrol";"m";22;0;66;4,35213389363302;2,0943951023932;5884,64299036394;5472,71798103846;547,271798103846;2;1;1;0,93;0,1;3;1769;1;TRUE;0,943620178041543;2013;4;1;0;1
"425";"190679de0fe52136018ef4bffdf3cfdd";"Lautaro Nuez Cayrol";"m";22;0;67;4,51331203001318;2,0943951023932;5296,78667759912;4237,42934207929;847,485868415858;0;1;1;0,8;0;2;1865;1;TRUE;0,937685459940653;1412;4;1;0;1
"426";"190679de0fe52136018ef4bffdf3cfdd";"Lautaro Nuez Cayrol";"m";22;0;68;5,63602208960764;2,0943951023932;8231,57071147032;7655,3607616674;1531,07215233348;0;2;2;0,93;0;2;1179;2;TRUE;1;701;4;1;1;0
"427";"190679de0fe52136018ef4bffdf3cfdd";"Lautaro Nuez Cayrol";"m";22;0;69;4,77434492684476;-2,0943951023932;7973,24865325212;5581,27405727649;1116,2548114553;1;1;1;0,7;0,2;3;1622;1;TRUE;1;1130;4;1;0;1
"428";"190679de0fe52136018ef4bffdf3cfdd";"Lautaro Nuez Cayrol";"m";22;0;70;1,41663980955353;2,0943951023932;6630,84568090798;6299,30339686258;629,930339686258;2;2;2;0,95;0,1;3;2367;2;TRUE;0,915430267062315;1789;4;1;1;0
"429";"190679de0fe52136018ef4bffdf3cfdd";"Lautaro Nuez Cayrol";"m";22;0;71;1,39680368538305;-2,0943951023932;7596,89398152163;6837,20458336946;4102,32275002168;2;1;1;0,9;0,6;3;2261;1;TRUE;0,94213649851632;1055;4;1;0;1
"430";"190679de0fe52136018ef4bffdf3cfdd";"Lautaro Nuez Cayrol";"m";22;0;72;3,37297595420792;2,0943951023932;9683,24266990451;8714,91840291406;3485,96736116563;0;1;1;0,9;0;2;1255;1;TRUE;0,982195845697329;1638;4;1;0;1
"431";"190679de0fe52136018ef4bffdf3cfdd";"Lautaro Nuez Cayrol";"m";22;0;73;5,98007618431225;-2,0943951023932;6808,9202283348;6332,29581235137;2532,91832494055;2;1;1;0,93;0,4;3;4953;1;TRUE;0,912462908011869;3115;4;1;0;1
"432";"190679de0fe52136018ef4bffdf3cfdd";"Lautaro Nuez Cayrol";"m";22;0;74;0,415155165991479;2,0943951023932;5931,41683503195;5634,84599328035;1126,96919865607;0;1;1;0,95;0;2;5295;1;TRUE;0,882789317507418;1798;4;1;0;1
"433";"190679de0fe52136018ef4bffdf3cfdd";"Lautaro Nuez Cayrol";"m";22;0;75;0,0958578595232715;-2,0943951023932;6349,3679795733;5079,49438365864;507,949438365864;0;2;2;0,8;0;2;1897;2;TRUE;0,959940652818991;796;4;1;1;0
"434";"190679de0fe52136018ef4bffdf3cfdd";"Lautaro Nuez Cayrol";"m";22;0;76;0,037826210015625;-2,0943951023932;7654,59017853547;7118,76886603799;4271,26131962279;2;2;2;0,93;0,6;3;1830;2;TRUE;1;1430;4;1;1;0
"435";"190679de0fe52136018ef4bffdf3cfdd";"Lautaro Nuez Cayrol";"m";22;0;77;2,91853699943187;-2,0943951023932;6737,71800287899;6400,83210273504;3840,49926164103;0;1;1;0,95;0;2;2899;1;TRUE;0,922848664688427;1479;4;1;0;1
"436";"190679de0fe52136018ef4bffdf3cfdd";"Lautaro Nuez Cayrol";"m";22;0;78;1,99066981324539;2,0943951023932;9032,3570551719;6322,64993862033;3793,5899631722;1;1;1;0,7;0,6;3;1132;1;TRUE;1;547;4;1;0;1
"437";"190679de0fe52136018ef4bffdf3cfdd";"Lautaro Nuez Cayrol";"m";22;0;79;0,205096224960262;2,0943951023932;8642,93729355712;6914,34983484569;1382,86996696914;2;1;1;0,8;0,2;3;1014;1;TRUE;1;669;4;1;0;1
"438";"190679de0fe52136018ef4bffdf3cfdd";"Lautaro Nuez Cayrol";"m";22;0;80;2,54426100181171;2,0943951023932;10461,6866793923;8369,34934351382;1673,86986870276;2;2;2;0,8;0,2;3;1054;2;TRUE;1;701;4;1;1;0
"439";"190679de0fe52136018ef4bffdf3cfdd";"Lautaro Nuez Cayrol";"m";22;0;81;1,88813645415237;-2,0943951023932;5609,44217886626;3926,60952520638;1963,30476260319;0;2;2;0,7;0;2;1193;2;TRUE;1;725;4;1;1;0
"440";"190679de0fe52136018ef4bffdf3cfdd";"Lautaro Nuez Cayrol";"m";22;0;82;5,87366702005928;-2,0943951023932;8484,89356367558;7636,40420730802;763,640420730802;0;2;2;0,9;0;2;1263;2;TRUE;1;975;4;1;1;0
"441";"190679de0fe52136018ef4bffdf3cfdd";"Lautaro Nuez Cayrol";"m";22;0;83;1,79925588907074;2,0943951023932;7631,9899437736;6105,59195501888;3663,35517301133;0;1;1;0,8;0;2;1209;1;TRUE;1;741;4;1;0;1
"442";"190679de0fe52136018ef4bffdf3cfdd";"Lautaro Nuez Cayrol";"m";22;0;84;3,40104685928551;-2,0943951023932;7311,83873946042;5118,28711762229;3070,97227057337;1;2;2;0,7;0,6;3;1109;2;TRUE;1;692;4;1;1;0
"443";"190679de0fe52136018ef4bffdf3cfdd";"Lautaro Nuez Cayrol";"m";22;0;85;2,91873488121553;-2,0943951023932;7597,3319684351;7217,46537001335;2886,98614800534;2;1;1;0,95;0,4;3;3244;1;TRUE;0,93620178041543;1429;4;1;0;1
"444";"190679de0fe52136018ef4bffdf3cfdd";"Lautaro Nuez Cayrol";"m";22;0;86;0,147640288043647;-2,0943951023932;6605,58519741784;5945,02667767606;2378,01067107042;0;2;2;0,9;0;2;6595;1;FALSE;0,695845697329377;4088;4;0;0;1
"445";"190679de0fe52136018ef4bffdf3cfdd";"Lautaro Nuez Cayrol";"m";22;0;87;1,35782108081309;2,0943951023932;7376,98681867374;6639,28813680637;3983,57288208382;1;2;2;0,9;0,6;3;1300;2;TRUE;0,931750741839763;1775;4;1;1;0
"446";"190679de0fe52136018ef4bffdf3cfdd";"Lautaro Nuez Cayrol";"m";22;0;88;5,49339887303848;-2,0943951023932;6414,84890813983;5773,36401732585;2886,68200866293;1;1;1;0,9;0,5;3;5430;1;TRUE;0,79673590504451;3697;4;1;0;1
"447";"190679de0fe52136018ef4bffdf3cfdd";"Lautaro Nuez Cayrol";"m";22;0;89;5,7508704856034;2,0943951023932;5930,0901594263;4744,07212754104;1423,22163826231;0;2;2;0,8;0;2;2745;2;TRUE;0,827893175074184;1004;4;1;1;0
"448";"190679de0fe52136018ef4bffdf3cfdd";"Lautaro Nuez Cayrol";"m";22;0;90;5,36200781585879;2,0943951023932;6660,82293292506;6327,78178627881;3796,66907176728;1;2;2;0,95;0,6;3;4637;1;FALSE;0,664688427299703;1559;4;0;0;1
"449";"190679de0fe52136018ef4bffdf3cfdd";"Lautaro Nuez Cayrol";"m";22;0;91;5,00583721452899;2,0943951023932;7594,22265996288;6834,80039396659;1366,96007879332;1;1;1;0,9;0,2;3;1082;1;TRUE;0,741839762611276;1804;4;1;0;1
"450";"190679de0fe52136018ef4bffdf3cfdd";"Lautaro Nuez Cayrol";"m";22;0;92;0,154383001086349;-2,0943951023932;5138,78105537123;4881,84200260267;1464,5526007808;0;1;1;0,95;0;2;3801;1;TRUE;0,599406528189911;2486;4;1;0;1
"451";"190679de0fe52136018ef4bffdf3cfdd";"Lautaro Nuez Cayrol";"m";22;0;93;4,41988071739411;-2,0943951023932;6001,19646052573;5401,07681447315;3240,64608868389;0;2;2;0,9;0;2;2065;2;TRUE;0,764094955489614;2832;4;1;1;0
"452";"190679de0fe52136018ef4bffdf3cfdd";"Lautaro Nuez Cayrol";"m";22;0;94;3,90185556319644;-2,0943951023932;7320,87669331304;6954,83285864739;3477,41642932369;0;2;2;0,95;0;2;2359;2;TRUE;0,522255192878338;2262;4;1;1;0
"453";"190679de0fe52136018ef4bffdf3cfdd";"Lautaro Nuez Cayrol";"m";22;0;95;2,15127903730152;2,0943951023932;8554,53335025401;7955,71601573623;2386,71480472087;0;2;2;0,93;0;2;1515;2;TRUE;0,695845697329377;4461;4;1;1;0
"454";"190679de0fe52136018ef4bffdf3cfdd";"Lautaro Nuez Cayrol";"m";22;0;96;4,56852450041488;-2,0943951023932;7778,30841843575;7233,82682914524;2893,5307316581;1;2;2;0,93;0,4;3;2468;2;TRUE;0,752225519287834;4590;4;1;1;0
"455";"190679de0fe52136018ef4bffdf3cfdd";"Lautaro Nuez Cayrol";"m";22;0;97;3,07308276292105;2,0943951023932;11751,8482195591;10576,6633976032;5288,33169880158;0;1;1;0,9;0;2;1182;1;TRUE;0,903560830860534;1405;4;1;0;1
"456";"190679de0fe52136018ef4bffdf3cfdd";"Lautaro Nuez Cayrol";"m";22;0;98;0,487565958461032;2,0943951023932;6671,93882845806;6204,903110466;1240,9806220932;2;2;2;0,93;0,2;3;3783;2;TRUE;0,70326409495549;2860;4;1;1;0
"457";"190679de0fe52136018ef4bffdf3cfdd";"Lautaro Nuez Cayrol";"m";22;0;99;5,31241581728832;-2,0943951023932;8232,96140594384;6586,36912475507;2634,54764990203;2;2;2;0,8;0,4;3;1509;2;TRUE;1;812;4;1;1;0
"458";"190679de0fe52136018ef4bffdf3cfdd";"Lautaro Nuez Cayrol";"m";22;0;100;1,42166505019001;2,0943951023932;8692,64211502488;6954,11369201991;3477,05684600995;2;1;1;0,8;0,5;3;1527;1;TRUE;1;541;4;1;0;1
"459";"190679de0fe52136018ef4bffdf3cfdd";"Lautaro Nuez Cayrol";"m";22;0;101;5,47693453963001;-2,0943951023932;5282,82165433768;3697,97515803637;739,595031607275;0;2;2;0,7;0;2;1815;2;TRUE;1;733;4;1;1;0
"460";"190679de0fe52136018ef4bffdf3cfdd";"Lautaro Nuez Cayrol";"m";22;0;102;1,82737757055219;-2,0943951023932;7672,4521809654;7288,82957191713;3644,41478595856;1;1;1;0,95;0,5;3;2023;1;TRUE;0,85459940652819;2044;4;1;0;1
"461";"190679de0fe52136018ef4bffdf3cfdd";"Lautaro Nuez Cayrol";"m";22;0;103;2,45109340993123;-2,0943951023932;10027,0890833088;8021,67126664702;4813,00275998821;1;1;1;0,8;0,6;3;1678;1;TRUE;0,952522255192878;1868;4;1;0;1
"462";"190679de0fe52136018ef4bffdf3cfdd";"Lautaro Nuez Cayrol";"m";22;0;104;2,92987590024503;-2,0943951023932;7235,88270464977;5788,70616371982;1736,61184911595;2;2;2;0,8;0,3;3;3292;2;TRUE;0,724035608308605;2134;4;1;1;0
"463";"190679de0fe52136018ef4bffdf3cfdd";"Lautaro Nuez Cayrol";"m";22;0;105;6,15950212738316;2,0943951023932;8149,98299542512;5704,98809679759;1711,49642903928;1;2;2;0,7;0,3;3;1262;2;TRUE;0,954005934718101;2350;4;1;1;0
"464";"190679de0fe52136018ef4bffdf3cfdd";"Lautaro Nuez Cayrol";"m";22;0;106;1,79916236395575;-2,0943951023932;7165,76159174194;6664,15828032;666,415828032;0;2;2;0,93;0;2;3348;2;TRUE;0,799703264094956;2445;4;1;1;0
"465";"190679de0fe52136018ef4bffdf3cfdd";"Lautaro Nuez Cayrol";"m";22;0;107;0,869200392308673;-2,0943951023932;10866,0551137926;10322,752358103;6193,65141486178;1;1;1;0,95;0,6;3;3514;1;TRUE;0,599406528189911;3373;4;1;0;1
"466";"190679de0fe52136018ef4bffdf3cfdd";"Lautaro Nuez Cayrol";"m";22;0;108;0,168254310638916;2,0943951023932;6217,67806895065;5782,4406041241;2891,22030206205;0;2;2;0,93;0;2;2031;2;TRUE;0,603857566765579;2404;4;1;1;0
"467";"190679de0fe52136018ef4bffdf3cfdd";"Lautaro Nuez Cayrol";"m";22;0;109;6,27784508629692;2,0943951023932;7912,8816682706;7517,23758485707;3758,61879242854;0;1;1;0,95;0;2;4139;1;TRUE;0,400593471810089;4093;4;1;0;1
"468";"190679de0fe52136018ef4bffdf3cfdd";"Lautaro Nuez Cayrol";"m";22;0;110;3,779168082076;2,0943951023932;7982,73041354795;7423,9392845996;2969,57571383984;0;2;2;0,93;0;2;3564;2;TRUE;0,375370919881306;4422;4;1;1;0
"469";"190679de0fe52136018ef4bffdf3cfdd";"Lautaro Nuez Cayrol";"m";22;0;111;5,28073380094254;2,0943951023932;9311,09089878435;8379,98180890591;2513,99454267177;2;2;2;0,9;0,3;3;2321;2;TRUE;0,5;3444;4;1;1;0
"470";"190679de0fe52136018ef4bffdf3cfdd";"Lautaro Nuez Cayrol";"m";22;0;112;6,02315122075709;-2,0943951023932;10460,1664478229;9727,9547964753;5836,77287788518;0;1;1;0,93;0;2;4962;1;TRUE;0,351632047477745;2461;4;1;0;1
"471";"190679de0fe52136018ef4bffdf3cfdd";"Lautaro Nuez Cayrol";"m";22;0;113;5,51051150882669;-2,0943951023932;9789,4411409346;9104,18026106918;5462,50815664151;0;2;2;0,93;0;2;4571;2;TRUE;0,298219584569733;3267;4;1;1;0
"472";"190679de0fe52136018ef4bffdf3cfdd";"Lautaro Nuez Cayrol";"m";22;0;114;2,05802518126233;2,0943951023932;11075,9233066326;10522,1271413009;4208,85085652038;2;2;2;0,95;0,4;3;5205;2;TRUE;0,400593471810089;2383;4;1;1;0
"473";"190679de0fe52136018ef4bffdf3cfdd";"Lautaro Nuez Cayrol";"m";22;0;115;5,09624144449691;2,0943951023932;5552,31234623108;3886,61864236176;388,661864236176;0;1;1;0,7;0;2;1647;1;TRUE;0,761127596439169;1887;4;1;0;1
"474";"190679de0fe52136018ef4bffdf3cfdd";"Lautaro Nuez Cayrol";"m";22;0;116;0,280043900644513;2,0943951023932;10143,8239404091;9433,75626458045;2830,12687937414;0;1;1;0,93;0;2;5255;1;TRUE;0,504451038575668;3477;4;1;0;1
"475";"190679de0fe52136018ef4bffdf3cfdd";"Lautaro Nuez Cayrol";"m";22;0;117;4,45779470611592;2,0943951023932;7390,21064695523;5912,16851756418;591,216851756418;1;1;1;0,8;0,1;3;1676;1;TRUE;0,700296735905044;1902;4;1;0;1
"476";"190679de0fe52136018ef4bffdf3cfdd";"Lautaro Nuez Cayrol";"m";22;0;118;3,27564852035447;2,0943951023932;5857,3388295017;4100,13718065119;2050,06859032559;1;2;2;0,7;0,5;3;1513;2;TRUE;1;692;4;1;1;0
"477";"190679de0fe52136018ef4bffdf3cfdd";"Lautaro Nuez Cayrol";"m";22;0;119;2,20710669704491;2,0943951023932;6963,25254300656;6615,08991585623;1323,01798317125;0;2;2;0,95;0;2;4850;2;TRUE;0,299703264094956;3808;4;1;1;0
"478";"190679de0fe52136018ef4bffdf3cfdd";"Lautaro Nuez Cayrol";"m";22;0;120;3,38274981025875;2,0943951023932;3025,20159727465;2873,94151741092;574,788303482184;2;2;2;0,95;0,2;3;1826;2;TRUE;0,298219584569733;2549;4;1;1;0
"479";"f9e4fac2bcdf6bc364cb762a953348a6";"Florencia Alejandra Almeda";"f";25;0;1;3,35345778826647;-2,0943951023932;7376,40341926478;5163,48239348535;1549,0447180456;0;1;1;0,7;0;2;2980;1;TRUE;1;6889;5;1;0;1
"480";"f9e4fac2bcdf6bc364cb762a953348a6";"Florencia Alejandra Almeda";"f";25;0;2;2,13841616790829;2,0943951023932;8181,88626919797;7772,79195573807;777,279195573807;2;1;1;0,95;0,1;3;1229;2;FALSE;1;1517;5;0;1;0
"481";"f9e4fac2bcdf6bc364cb762a953348a6";"Florencia Alejandra Almeda";"f";25;0;3;4,351019903275;-2,0943951023932;8298,75900628021;7717,8458758406;3858,9229379203;2;2;2;0,93;0,5;3;2253;2;TRUE;0,812749003984064;1366;5;1;1;0
