;Code;;Gender;Age;Mobile;Trial_number;Angle;distance_ratio;xtarget;ytarget;sd;nsamples;color_nube1;color_nube2;color_nube3;color_buttons1;color_buttons2;color_buttons3;correct_color;correct_cloud;Nalternativas;RT_type1;Response;Correct;Confidence;RT_Confidence;Nsujeto;binary_correct
1;edd6dd0b1f1d647652335f32a3aada1b;;f;25;0;1;601,396,094,148,694;3;683;256,666,666,666,667;60;375;2;1;0;0;1;2;1;2;2;6276;1;TRUE;1;1345;1;1
2;edd6dd0b1f1d647652335f32a3aada1b;;f;25;0;2;561,355,244,939,802;2,5;727;282;60;375;2;1;0;0;1;2;2;1;2;5010;2;TRUE;0,498516320474777;1380;1;1
3;edd6dd0b1f1d647652335f32a3aada1b;;f;25;0;3;38,736,522,797,032;2,1;706,571,428,571,429;270,238,095,238,095;60;375;2;1;0;0;1;2;1;2;2;5033;1;TRUE;0,732937685459941;2221;1;1
4;edd6dd0b1f1d647652335f32a3aada1b;;f;25;0;4;0,414520288777577;3;683;256,666,666,666,667;60;375;1;2;0;0;1;2;2;2;3;3099;2;TRUE;0,808605341246291;1669;1;1
5;edd6dd0b1f1d647652335f32a3aada1b;;f;25;0;5;0,811383392402344;2,5;694;263;60;375;1;0;2;0;1;2;0;2;3;4444;0;TRUE;0,799703264094956;1197;1;1
6;edd6dd0b1f1d647652335f32a3aada1b;;f;25;0;6;22,855,107,755,683;2,5;694;263;60;375;0;2;1;0;1;2;2;2;3;4924;2;TRUE;0,597922848664688;2750;1;1
7;edd6dd0b1f1d647652335f32a3aada1b;;f;25;0;7;127,277,181,835,338;2,5;694;263;60;375;2;0;1;0;1;2;0;2;3;3513;0;TRUE;0,620178041543027;3886;1;1
8;edd6dd0b1f1d647652335f32a3aada1b;;f;25;0;8;0,627365805863531;2,1;714,428,571,428,571;274,761,904,761,905;60;375;2;0;1;0;1;2;2;1;3;3457;0;FALSE;0,652818991097923;1158;1;0
9;edd6dd0b1f1d647652335f32a3aada1b;;f;25;0;9;317,851,188,688,192;2,5;727;282;60;375;1;0;2;0;1;2;1;1;2;2076;1;TRUE;0,900593471810089;2758;1;1
10;edd6dd0b1f1d647652335f32a3aada1b;;f;25;0;10;0,304738961022234;2,1;714,428,571,428,571;274,761,904,761,905;60;375;2;1;0;0;1;2;2;1;3;3238;2;TRUE;0,835311572700297;1534;1;1
11;edd6dd0b1f1d647652335f32a3aada1b;;f;25;0;11;354,260,651,106,486;2,1;706,571,428,571,429;270,238,095,238,095;60;375;0;1;2;0;1;2;1;2;3;3650;1;TRUE;0,710682492581602;1052;1;1
12;edd6dd0b1f1d647652335f32a3aada1b;;f;25;0;12;0,998873341143756;2,1;714,428,571,428,571;274,761,904,761,905;60;375;2;1;0;0;1;2;2;1;2;1966;2;TRUE;0,70919881305638;1229;1;1
13;edd6dd0b1f1d647652335f32a3aada1b;;f;25;0;13;615,956,554,222,283;2,5;727;282;60;375;0;2;1;0;1;2;0;1;2;2134;0;TRUE;0,997032640949555;1645;1;1
14;edd6dd0b1f1d647652335f32a3aada1b;;f;25;0;14;334,850,896,459,622;2,5;694;263;60;375;2;1;0;0;1;2;1;2;3;5839;2;FALSE;0,307121661721068;2217;1;0
15;edd6dd0b1f1d647652335f32a3aada1b;;f;25;0;15;598,189,672,369,332;3;738;288,333,333,333,333;60;375;2;0;1;0;1;2;2;1;2;1982;2;TRUE;0,905044510385757;4172;1;1
16;edd6dd0b1f1d647652335f32a3aada1b;;f;25;0;16;443,512,860,639,945;3;738;288,333,333,333,333;60;375;1;0;2;0;1;2;1;1;3;3368;1;TRUE;0,94213649851632;2174;1;1
17;edd6dd0b1f1d647652335f32a3aada1b;;f;25;0;17;316,855,459,858,821;3;683;256,666,666,666,667;60;375;2;1;0;0;1;2;1;2;3;2753;1;TRUE;0,939169139465875;1982;1;1
18;edd6dd0b1f1d647652335f32a3aada1b;;f;25;0;18;628,034,707,740,125;2,1;714,428,571,428,571;274,761,904,761,905;60;375;2;0;1;0;1;2;2;1;2;2613;2;TRUE;0,359050445103858;861;1;1
19;edd6dd0b1f1d647652335f32a3aada1b;;f;25;0;19;230,826,023,321,703;2,1;714,428,571,428,571;274,761,904,761,905;60;375;0;2;1;0;1;2;0;1;3;8127;0;TRUE;0,197329376854599;1789;1;1
20;edd6dd0b1f1d647652335f32a3aada1b;;f;25;0;20;438,381,221,077,257;3;738;288,333,333,333,333;60;375;2;0;1;0;1;2;2;1;2;5756;2;TRUE;0,836795252225519;1653;1;1
21;edd6dd0b1f1d647652335f32a3aada1b;;f;25;0;21;493,789,712,650,447;3;738;288,333,333,333,333;60;375;1;2;0;0;1;2;1;1;3;2008;1;TRUE;0,948071216617211;2551;1;1
22;edd6dd0b1f1d647652335f32a3aada1b;;f;25;0;22;413,652,160,005,633;3;738;288,333,333,333,333;60;375;1;2;0;0;1;2;1;1;2;1695;1;TRUE;0,910979228486647;1317;1;1
23;edd6dd0b1f1d647652335f32a3aada1b;;f;25;0;23;0,786302015288914;2,1;714,428,571,428,571;274,761,904,761,905;60;375;0;1;2;0;1;2;0;1;3;3473;1;FALSE;0,813056379821958;1246;1;0
24;edd6dd0b1f1d647652335f32a3aada1b;;f;25;0;24;557,970,397,285,481;2,5;727;282;60;375;1;0;2;0;1;2;1;1;2;1654;1;TRUE;0,902077151335312;1774;1;1
25;edd6dd0b1f1d647652335f32a3aada1b;;f;25;0;25;0,452908513214977;2,1;714,428,571,428,571;274,761,904,761,905;60;375;1;2;0;0;1;2;1;1;2;5078;2;FALSE;0,305637982195846;2095;1;0
26;edd6dd0b1f1d647652335f32a3aada1b;;f;25;0;26;390,499,698,897,712;3;683;256,666,666,666,667;60;375;2;0;1;0;1;2;0;2;2;2735;0;TRUE;0,632047477744807;1038;1;1
27;edd6dd0b1f1d647652335f32a3aada1b;;f;25;0;27;35,561,712,693,703;2,1;714,428,571,428,571;274,761,904,761,905;60;375;2;0;1;0;1;2;2;1;3;1865;0;FALSE;0,648367952522255;782;1;0
28;edd6dd0b1f1d647652335f32a3aada1b;;f;25;0;28;621,794,908,098,579;2,1;714,428,571,428,571;274,761,904,761,905;60;375;1;0;2;0;1;2;1;1;3;1745;1;TRUE;0,84272997032641;1054;1;1
29;edd6dd0b1f1d647652335f32a3aada1b;;f;25;0;29;430,402,390,769,886;2,1;706,571,428,571,429;270,238,095,238,095;60;375;2;0;1;0;1;2;0;2;3;2712;2;FALSE;0,669139465875371;2125;1;0
30;edd6dd0b1f1d647652335f32a3aada1b;;f;25;0;30;324,810,902,944,976;2,1;714,428,571,428,571;274,761,904,761,905;60;375;1;2;0;0;1;2;1;1;3;2835;1;TRUE;0,700296735905044;806;1;1
31;edd6dd0b1f1d647652335f32a3aada1b;;f;25;0;31;408,608,163,273,272;2,5;727;282;60;375;2;1;0;0;1;2;2;1;2;1749;2;TRUE;0,676557863501484;1087;1;1
32;edd6dd0b1f1d647652335f32a3aada1b;;f;25;0;32;523,606,115,322,269;2,5;727;282;60;375;1;0;2;0;1;2;1;1;3;1792;1;TRUE;0,700296735905044;1030;1;1
33;edd6dd0b1f1d647652335f32a3aada1b;;f;25;0;33;217,666,569,537,637;3;683;256,666,666,666,667;60;375;2;1;0;0;1;2;1;2;2;10045;1;TRUE;0,79673590504451;1605;1;1
34;edd6dd0b1f1d647652335f32a3aada1b;;f;25;0;34;413,049,221,508,234;2,5;727;282;60;375;0;1;2;0;1;2;0;1;3;2393;1;FALSE;0,802670623145401;900;1;0
35;edd6dd0b1f1d647652335f32a3aada1b;;f;25;0;35;0,268607704644419;2,1;714,428,571,428,571;274,761,904,761,905;60;375;1;0;2;0;1;2;1;1;3;1706;1;TRUE;0,870919881305638;1326;1;1
36;edd6dd0b1f1d647652335f32a3aada1b;;f;25;0;36;578,750,310,614,518;3;683;256,666,666,666,667;60;375;0;1;2;0;1;2;1;2;3;1576;1;TRUE;0,906528189910979;1278;1;1
37;edd6dd0b1f1d647652335f32a3aada1b;;f;25;0;37;0,98186433563189;3;683;256,666,666,666,667;60;375;2;0;1;0;1;2;0;2;2;1734;0;TRUE;0,835311572700297;765;1;1
38;edd6dd0b1f1d647652335f32a3aada1b;;f;25;0;38;0,493439204713312;3;738;288,333,333,333,333;60;375;2;1;0;0;1;2;2;1;2;1814;2;TRUE;0,747774480712166;1470;1;1
39;edd6dd0b1f1d647652335f32a3aada1b;;f;25;0;39;622,624,824,485,077;2,5;727;282;60;375;0;2;1;0;1;2;0;1;3;2892;0;TRUE;0,327893175074184;1709;1;1
40;edd6dd0b1f1d647652335f32a3aada1b;;f;25;0;40;351,867,690,220,846;3;738;288,333,333,333,333;60;375;1;2;0;0;1;2;1;1;2;1845;1;TRUE;0,945103857566766;1702;1;1
41;edd6dd0b1f1d647652335f32a3aada1b;;f;25;0;41;322,260,716,897,301;2,5;694;263;60;375;2;1;0;0;1;2;1;2;2;2348;1;TRUE;0,775964391691395;1582;1;1
42;edd6dd0b1f1d647652335f32a3aada1b;;f;25;0;42;472,393,343,053,175;2,5;694;263;60;375;1;0;2;0;1;2;0;2;2;11165;0;TRUE;0,807121661721068;1806;1;1
43;edd6dd0b1f1d647652335f32a3aada1b;;f;25;0;43;295,995,226,177,072;2,5;727;282;60;375;0;2;1;0;1;2;0;1;3;2238;0;TRUE;0,79673590504451;901;1;1
44;edd6dd0b1f1d647652335f32a3aada1b;;f;25;0;44;487,409,642,769,313;3;738;288,333,333,333,333;60;375;1;0;2;0;1;2;1;1;2;1717;1;TRUE;0,804154302670623;854;1;1
45;edd6dd0b1f1d647652335f32a3aada1b;;f;25;0;45;360,348,418,078,703;2,1;714,428,571,428,571;274,761,904,761,905;60;375;1;0;2;0;1;2;1;1;3;3178;1;TRUE;0,114243323442137;1038;1;1
46;edd6dd0b1f1d647652335f32a3aada1b;;f;25;0;46;11,354,238,793,493;2,1;706,571,428,571,429;270,238,095,238,095;60;375;0;1;2;0;1;2;1;2;2;3021;1;TRUE;0,77299703264095;3406;1;1
47;edd6dd0b1f1d647652335f32a3aada1b;;f;25;0;47;137,365,387,443,476;2,1;706,571,428,571,429;270,238,095,238,095;60;375;0;1;2;0;1;2;1;2;3;2083;1;TRUE;0,789317507418398;989;1;1
48;edd6dd0b1f1d647652335f32a3aada1b;;f;25;0;48;527,863,902,997,598;2,5;694;263;60;375;0;1;2;0;1;2;1;2;3;1665;1;TRUE;0,767062314540059;1085;1;1
49;edd6dd0b1f1d647652335f32a3aada1b;;f;25;0;49;625,259,960,966,201;3;738;288,333,333,333,333;60;375;2;0;1;0;1;2;2;1;3;3232;2;TRUE;0,885756676557863;1446;1;1
50;edd6dd0b1f1d647652335f32a3aada1b;;f;25;0;50;0,271349878621326;2,1;714,428,571,428,571;274,761,904,761,905;60;375;2;0;1;0;1;2;2;1;2;1621;2;TRUE;0,888724035608309;1494;1;1
51;edd6dd0b1f1d647652335f32a3aada1b;;f;25;0;51;573,399,206,090,752;3;683;256,666,666,666,667;60;375;2;0;1;0;1;2;0;2;3;2344;0;TRUE;0,811572700296736;1052;1;1
52;edd6dd0b1f1d647652335f32a3aada1b;;f;25;0;52;164,652,340,649,471;2,5;694;263;60;375;2;0;1;0;1;2;0;2;2;3133;0;TRUE;0,827893175074184;943;1;1
53;edd6dd0b1f1d647652335f32a3aada1b;;f;25;0;53;177,614,445,833,353;3;738;288,333,333,333,333;60;375;2;0;1;0;1;2;2;1;3;6895;2;TRUE;0,851632047477745;1110;1;1
54;edd6dd0b1f1d647652335f32a3aada1b;;f;25;0;54;0,206000049976914;2,5;694;263;60;375;2;0;1;0;1;2;0;2;3;1625;0;TRUE;0,897626112759644;1750;1;1
55;edd6dd0b1f1d647652335f32a3aada1b;;f;25;0;55;211,033,141,228,796;2,5;727;282;60;375;0;1;2;0;1;2;0;1;2;1764;1;FALSE;0,899109792284866;1688;1;0
56;edd6dd0b1f1d647652335f32a3aada1b;;f;25;0;56;412,721,416,699,404;2,5;694;263;60;375;1;2;0;0;1;2;2;2;3;1864;2;TRUE;0,894658753709199;1565;1;1
57;edd6dd0b1f1d647652335f32a3aada1b;;f;25;0;57;13,522,452,750,422;3;738;288,333,333,333,333;60;375;2;0;1;0;1;2;2;1;2;1381;2;TRUE;0,893175074183976;1765;1;1
58;edd6dd0b1f1d647652335f32a3aada1b;;f;25;0;58;199,022,046,668,263;3;738;288,333,333,333,333;60;375;2;0;1;0;1;2;2;1;3;2058;2;TRUE;0,899109792284866;853;1;1
59;edd6dd0b1f1d647652335f32a3aada1b;;f;25;0;59;124,535,996,041,747;3;683;256,666,666,666,667;60;375;2;0;1;0;1;2;0;2;2;1493;0;TRUE;0,894658753709199;997;1;1
60;edd6dd0b1f1d647652335f32a3aada1b;;f;25;0;60;546,897,340,690,139;2,5;727;282;60;375;0;2;1;0;1;2;0;1;3;2113;0;TRUE;0,759643916913947;750;1;1
61;edd6dd0b1f1d647652335f32a3aada1b;;f;25;0;61;162,477,274,310,557;2,1;706,571,428,571,429;270,238,095,238,095;60;375;0;1;2;0;1;2;1;2;2;1597;1;TRUE;0,906528189910979;1070;1;1
62;edd6dd0b1f1d647652335f32a3aada1b;;f;25;0;62;205,866,886,207,779;2,1;706,571,428,571,429;270,238,095,238,095;60;375;1;2;0;0;1;2;2;2;2;2814;1;FALSE;0,899109792284866;1494;1;0
63;edd6dd0b1f1d647652335f32a3aada1b;;f;25;0;63;139,276,491,018,234;2,1;706,571,428,571,429;270,238,095,238,095;60;375;2;1;0;0;1;2;1;2;2;1533;1;TRUE;0,863501483679525;725;1;1
64;edd6dd0b1f1d647652335f32a3aada1b;;f;25;0;64;220,532,487,588,391;2,5;727;282;60;375;2;0;1;0;1;2;2;1;3;1489;2;TRUE;0,827893175074184;1039;1;1
65;edd6dd0b1f1d647652335f32a3aada1b;;f;25;0;65;0,340670991246559;3;738;288,333,333,333,333;60;375;1;2;0;0;1;2;1;1;2;1478;1;TRUE;0,909495548961424;780;1;1
66;edd6dd0b1f1d647652335f32a3aada1b;;f;25;0;66;504,786,651,284,245;2,1;706,571,428,571,429;270,238,095,238,095;60;375;1;0;2;0;1;2;0;2;3;1875;0;TRUE;0,716617210682493;1422;1;1
67;edd6dd0b1f1d647652335f32a3aada1b;;f;25;0;67;473,372,710,660,955;2,5;727;282;60;375;0;1;2;0;1;2;0;1;2;1421;0;TRUE;0,79673590504451;1030;1;1
68;edd6dd0b1f1d647652335f32a3aada1b;;f;25;0;68;530,680,571,875,029;2,5;727;282;60;375;2;0;1;0;1;2;2;1;3;1633;2;TRUE;0,820474777448071;1085;1;1
69;edd6dd0b1f1d647652335f32a3aada1b;;f;25;0;69;200,372,392,047,394;2,1;714,428,571,428,571;274,761,904,761,905;60;375;0;1;2;0;1;2;0;1;3;1650;1;FALSE;0,820474777448071;1092;1;0
70;edd6dd0b1f1d647652335f32a3aada1b;;f;25;0;70;583,382,127,018,856;3;738;288,333,333,333,333;60;375;0;1;2;0;1;2;0;1;3;1939;0;TRUE;0,824925816023739;1053;1;1
71;edd6dd0b1f1d647652335f32a3aada1b;;f;25;0;71;237,361,263,980,931;2,1;706,571,428,571,429;270,238,095,238,095;60;375;1;2;0;0;1;2;2;2;2;1413;2;TRUE;0,802670623145401;1302;1;1
72;edd6dd0b1f1d647652335f32a3aada1b;;f;25;0;72;104,485,713,324,034;2,1;714,428,571,428,571;274,761,904,761,905;60;375;1;0;2;0;1;2;1;1;2;1654;1;TRUE;0,649851632047478;949;1;1
73;edd6dd0b1f1d647652335f32a3aada1b;;f;25;0;73;625,981,163,530,153;2,1;714,428,571,428,571;274,761,904,761,905;60;375;1;2;0;0;1;2;1;1;3;1329;1;TRUE;0,747774480712166;821;1;1
74;edd6dd0b1f1d647652335f32a3aada1b;;f;25;0;74;529,904,159,713,134;2,1;714,428,571,428,571;274,761,904,761,905;60;375;0;1;2;0;1;2;0;1;2;3165;1;FALSE;0,256676557863501;973;1;0
75;edd6dd0b1f1d647652335f32a3aada1b;;f;25;0;75;170,081,541,317,607;2,5;727;282;60;375;0;2;1;0;1;2;0;1;3;4746;0;TRUE;0,20326409495549;1332;1;1
76;edd6dd0b1f1d647652335f32a3aada1b;;f;25;0;76;591,725,785,792,226;2,1;706,571,428,571,429;270,238,095,238,095;60;375;1;0;2;0;1;2;0;2;3;5512;0;TRUE;0,0964391691394659;1342;1;1
77;edd6dd0b1f1d647652335f32a3aada1b;;f;25;0;77;430,079,951,327,505;2,5;727;282;60;375;0;2;1;0;1;2;0;1;3;1784;0;TRUE;0,408011869436202;1615;1;1
78;edd6dd0b1f1d647652335f32a3aada1b;;f;25;0;78;411,678,045,721,788;3;683;256,666,666,666,667;60;375;0;1;2;0;1;2;1;2;2;1685;1;TRUE;0,909495548961424;1581;1;1
79;edd6dd0b1f1d647652335f32a3aada1b;;f;25;0;79;502,324,648,393,302;2,5;727;282;60;375;2;1;0;0;1;2;2;1;3;1719;2;TRUE;0,900593471810089;791;1;1
80;edd6dd0b1f1d647652335f32a3aada1b;;f;25;0;80;542,804,436,305,946;3;683;256,666,666,666,667;60;375;0;1;2;0;1;2;1;2;3;7801;1;TRUE;0,829376854599407;1806;1;1
81;edd6dd0b1f1d647652335f32a3aada1b;;f;25;0;81;400,953,300,075,023;2,5;694;263;60;375;0;1;2;0;1;2;1;2;2;1598;1;TRUE;0,875370919881306;1013;1;1
82;edd6dd0b1f1d647652335f32a3aada1b;;f;25;0;82;514,824,485,849,735;3;738;288,333,333,333,333;60;375;2;1;0;0;1;2;2;1;2;1678;2;TRUE;0,873887240356083;1117;1;1
83;edd6dd0b1f1d647652335f32a3aada1b;;f;25;0;83;456,056,908,759,102;3;738;288,333,333,333,333;60;375;1;0;2;0;1;2;1;1;3;1498;1;TRUE;0,845697329376855;990;1;1
84;edd6dd0b1f1d647652335f32a3aada1b;;f;25;0;84;0,243561055197342;2,5;694;263;60;375;0;1;2;0;1;2;1;2;2;1350;1;TRUE;0,807121661721068;1486;1;1
85;edd6dd0b1f1d647652335f32a3aada1b;;f;25;0;85;331,026,301,556,084;3;738;288,333,333,333,333;60;375;0;2;1;0;1;2;0;1;2;1757;0;TRUE;0,838278931750742;823;1;1
86;edd6dd0b1f1d647652335f32a3aada1b;;f;25;0;86;0,614468010784766;2,1;714,428,571,428,571;274,761,904,761,905;60;375;0;2;1;0;1;2;0;1;2;1956;2;FALSE;0,891691394658754;1630;1;0
87;edd6dd0b1f1d647652335f32a3aada1b;;f;25;0;87;438,842,305,830,704;2,5;727;282;60;375;2;1;0;0;1;2;2;1;3;8167;2;TRUE;0,816023738872404;1270;1;1
88;edd6dd0b1f1d647652335f32a3aada1b;;f;25;0;88;271,923,333,353,008;2,5;727;282;60;375;1;0;2;0;1;2;1;1;2;3580;1;TRUE;0,798219584569733;1518;1;1
89;edd6dd0b1f1d647652335f32a3aada1b;;f;25;0;89;221,039,942,859,724;3;683;256,666,666,666,667;60;375;1;2;0;0;1;2;2;2;2;1461;2;TRUE;0,896142433234421;1334;1;1
90;edd6dd0b1f1d647652335f32a3aada1b;;f;25;0;90;395,894,791,527,466;3;738;288,333,333,333,333;60;375;1;0;2;0;1;2;1;1;2;1325;1;TRUE;0,881305637982196;831;1;1
91;edd6dd0b1f1d647652335f32a3aada1b;;f;25;0;91;0,0926917958335557;2,1;706,571,428,571,429;270,238,095,238,095;60;375;0;2;1;0;1;2;2;2;3;1817;2;TRUE;0,597922848664688;1159;1;1
92;edd6dd0b1f1d647652335f32a3aada1b;;f;25;0;92;446,055,090,012,235;2,1;706,571,428,571,429;270,238,095,238,095;60;375;0;2;1;0;1;2;2;2;3;1688;0;FALSE;0,597922848664688;654;1;0
93;edd6dd0b1f1d647652335f32a3aada1b;;f;25;0;93;242,022,933,914,553;2,1;706,571,428,571,429;270,238,095,238,095;60;375;1;2;0;0;1;2;2;2;2;2813;2;TRUE;0,600890207715134;1374;1;1
94;edd6dd0b1f1d647652335f32a3aada1b;;f;25;0;94;55,312,044,008,319;2,5;727;282;60;375;2;1;0;0;1;2;2;1;2;1857;2;TRUE;0,388724035608309;1406;1;1
95;edd6dd0b1f1d647652335f32a3aada1b;;f;25;0;95;308,713,654,352,804;2,5;727;282;60;375;2;1;0;0;1;2;2;1;2;1751;2;TRUE;0,571216617210683;974;1;1
96;edd6dd0b1f1d647652335f32a3aada1b;;f;25;0;96;606,274,007,392,391;3;738;288,333,333,333,333;60;375;2;0;1;0;1;2;2;1;3;2555;2;TRUE;0,879821958456973;798;1;1
97;edd6dd0b1f1d647652335f32a3aada1b;;f;25;0;97;322,716,138,450,335;2,1;706,571,428,571,429;270,238,095,238,095;60;375;0;1;2;0;1;2;1;2;2;2126;1;TRUE;0,833827893175074;821;1;1
98;edd6dd0b1f1d647652335f32a3aada1b;;f;25;0;98;352,063,769,574,641;3;683;256,666,666,666,667;60;375;0;2;1;0;1;2;2;2;2;1541;2;TRUE;0,884272997032641;949;1;1
99;edd6dd0b1f1d647652335f32a3aada1b;;f;25;0;99;0,739551375053135;2,5;727;282;60;375;0;1;2;0;1;2;0;1;2;5207;0;TRUE;0,471810089020772;1550;1;1
100;edd6dd0b1f1d647652335f32a3aada1b;;f;25;0;100;278,897,057,532,622;2,1;706,571,428,571,429;270,238,095,238,095;60;375;1;0;2;0;1;2;0;2;2;1805;1;FALSE;0,655786350148368;1574;1;0
101;edd6dd0b1f1d647652335f32a3aada1b;;f;25;0;101;477,939,082,661,657;2,1;714,428,571,428,571;274,761,904,761,905;60;375;2;0;1;0;1;2;2;1;2;1583;2;TRUE;0,719584569732938;1222;1;1
102;edd6dd0b1f1d647652335f32a3aada1b;;f;25;0;102;248,339,607,434,358;2,1;706,571,428,571,429;270,238,095,238,095;60;375;2;0;1;0;1;2;0;2;2;2157;0;TRUE;0,805637982195846;1462;1;1
103;edd6dd0b1f1d647652335f32a3aada1b;;f;25;0;103;343,949,416,899,995;2,1;706,571,428,571,429;270,238,095,238,095;60;375;0;1;2;0;1;2;1;2;2;4737;1;TRUE;0,832344213649852;1183;1;1
104;edd6dd0b1f1d647652335f32a3aada1b;;f;25;0;104;208,611,289,452,398;3;683;256,666,666,666,667;60;375;2;1;0;0;1;2;1;2;3;1776;1;TRUE;0,894658753709199;1614;1;1
105;edd6dd0b1f1d647652335f32a3aada1b;;f;25;0;105;566,658,036,020,102;2,5;727;282;60;375;0;1;2;0;1;2;0;1;3;2064;1;FALSE;0,859050445103858;1396;1;0
106;edd6dd0b1f1d647652335f32a3aada1b;;f;25;0;106;0,54751072787292;3;738;288,333,333,333,333;60;375;1;2;0;0;1;2;1;1;3;1595;1;TRUE;0,867952522255193;1302;1;1
107;edd6dd0b1f1d647652335f32a3aada1b;;f;25;0;107;354,393,078,071,356;2,1;714,428,571,428,571;274,761,904,761,905;60;375;1;2;0;0;1;2;1;1;3;2179;2;FALSE;0,859050445103858;950;1;0
108;edd6dd0b1f1d647652335f32a3aada1b;;f;25;0;108;5,416,991,956,758;2,5;694;263;60;375;2;0;1;0;1;2;0;2;3;2408;0;TRUE;0,623145400593472;1181;1;1
109;edd6dd0b1f1d647652335f32a3aada1b;;f;25;0;109;103,818,550,331,636;2,1;706,571,428,571,429;270,238,095,238,095;60;375;0;2;1;0;1;2;2;2;3;2793;2;TRUE;0,112759643916914;1006;1;1
110;edd6dd0b1f1d647652335f32a3aada1b;;f;25;0;110;574,557,030,931,739;2,5;694;263;60;375;1;2;0;0;1;2;2;2;2;1469;2;TRUE;0,875370919881306;2671;1;1
111;edd6dd0b1f1d647652335f32a3aada1b;;f;25;0;111;0,234468262656264;2,5;694;263;60;375;2;1;0;0;1;2;1;2;2;1829;1;TRUE;0,86646884272997;551;1;1
112;edd6dd0b1f1d647652335f32a3aada1b;;f;25;0;112;41,302,763,285,229;3;738;288,333,333,333,333;60;375;1;0;2;0;1;2;1;1;3;1521;1;TRUE;0,94213649851632;1358;1;1
113;edd6dd0b1f1d647652335f32a3aada1b;;f;25;0;113;207,884,830,323,093;3;738;288,333,333,333,333;60;375;2;0;1;0;1;2;2;1;3;1632;2;TRUE;0,823442136498516;1334;1;1
114;edd6dd0b1f1d647652335f32a3aada1b;;f;25;0;114;272,295,672,218,497;2,1;714,428,571,428,571;274,761,904,761,905;60;375;2;1;0;0;1;2;2;1;2;1541;2;TRUE;0,824925816023739;1062;1;1
115;edd6dd0b1f1d647652335f32a3aada1b;;f;25;0;115;245,051,520,024,724;3;738;288,333,333,333,333;60;375;0;1;2;0;1;2;0;1;2;2477;0;TRUE;0,894658753709199;1725;1;1
116;edd6dd0b1f1d647652335f32a3aada1b;;f;25;0;116;607,134,174,792,471;2,5;727;282;60;375;0;2;1;0;1;2;0;1;2;1749;0;TRUE;0,897626112759644;1166;1;1
117;edd6dd0b1f1d647652335f32a3aada1b;;f;25;0;117;350,289,429,487,295;3;683;256,666,666,666,667;60;375;2;1;0;0;1;2;1;2;3;1481;1;TRUE;0,896142433234421;1324;1;1
118;edd6dd0b1f1d647652335f32a3aada1b;;f;25;0;118;537,540,434,929,849;3;683;256,666,666,666,667;60;375;2;0;1;0;1;2;0;2;3;1474;0;TRUE;0,887240356083086;1925;1;1
119;edd6dd0b1f1d647652335f32a3aada1b;;f;25;0;119;304,369,383,662,841;2,5;694;263;60;375;0;1;2;0;1;2;1;2;2;1672;1;TRUE;0,961424332344214;1302;1;1
120;edd6dd0b1f1d647652335f32a3aada1b;;f;25;0;120;0,812796698270445;3;738;288,333,333,333,333;60;375;2;0;1;0;1;2;2;1;3;2035;2;TRUE;0,771513353115727;846;1;1
121;c35a98179953ce681aeb936a6b419b14;;f;23;0;1;217,395,140,351,444;2,1;706,571,428,571,429;270,238,095,238,095;60;375;2;1;0;0;1;2;1;2;2;8398;1;TRUE;0,497032640949555;3651;2;1
122;c35a98179953ce681aeb936a6b419b14;;f;23;0;2;521,681,498,313,277;2,5;727;282;60;375;0;1;2;0;1;2;0;1;2;6900;0;TRUE;0,79673590504451;3714;2;1
123;c35a98179953ce681aeb936a6b419b14;;f;23;0;3;329,290,681,504,668;3;738;288,333,333,333,333;60;375;0;1;2;0;1;2;0;1;3;5556;0;TRUE;0,753709198813056;9287;2;1
124;c35a98179953ce681aeb936a6b419b14;;f;23;0;4;188,023,525,852,956;2,1;706,571,428,571,429;270,238,095,238,095;60;375;0;2;1;0;1;2;2;2;2;5368;2;TRUE;0,851632047477745;4266;2;1
125;c35a98179953ce681aeb936a6b419b14;;f;23;0;5;602,656,585,029,321;3;738;288,333,333,333,333;60;375;2;1;0;0;1;2;2;1;3;5370;2;TRUE;0,897626112759644;3865;2;1
126;c35a98179953ce681aeb936a6b419b14;;f;23;0;6;620,450,337,161,325;3;738;288,333,333,333,333;60;375;0;2;1;0;1;2;0;1;2;9678;0;TRUE;0,798219584569733;3452;2;1
127;c35a98179953ce681aeb936a6b419b14;;f;23;0;7;439,052,419,481,018;2,5;727;282;60;375;1;0;2;0;1;2;1;1;2;3171;1;TRUE;0,847181008902077;3547;2;1
128;c35a98179953ce681aeb936a6b419b14;;f;23;0;8;128,402,760,666,044;3;683;256,666,666,666,667;60;375;1;2;0;0;1;2;2;2;2;4206;1;FALSE;0,504451038575668;4872;2;0
129;c35a98179953ce681aeb936a6b419b14;;f;23;0;9;4,328,319,116,909;3;738;288,333,333,333,333;60;375;0;1;2;0;1;2;0;1;3;6461;0;TRUE;0,596439169139466;3183;2;1
130;c35a98179953ce681aeb936a6b419b14;;f;23;0;10;28,927,531,406,418;3;738;288,333,333,333,333;60;375;1;0;2;0;1;2;1;1;2;3181;1;TRUE;0,752225519287834;4514;2;1
131;c35a98179953ce681aeb936a6b419b14;;f;23;0;11;170,707,632,847,419;2,5;694;263;60;375;0;1;2;0;1;2;1;2;3;6975;1;TRUE;0,550445103857567;3818;2;1
132;c35a98179953ce681aeb936a6b419b14;;f;23;0;12;373,089,187,586,869;2,1;706,571,428,571,429;270,238,095,238,095;60;375;2;0;1;0;1;2;0;2;2;8023;2;FALSE;0,600890207715134;4548;2;0
133;c35a98179953ce681aeb936a6b419b14;;f;23;0;13;222,972,626,677,483;3;683;256,666,666,666,667;60;375;0;2;1;0;1;2;2;2;3;4993;0;FALSE;0,498516320474777;1964;2;0
134;c35a98179953ce681aeb936a6b419b14;;f;23;0;14;240,354,883,972,936;2,1;714,428,571,428,571;274,761,904,761,905;60;375;0;2;1;0;1;2;0;1;3;7706;0;TRUE;0,498516320474777;2183;2;1
135;c35a98179953ce681aeb936a6b419b14;;f;23;0;15;33,953,574,712,644;2,5;694;263;60;375;1;0;2;0;1;2;0;2;3;7878;0;TRUE;0,551928783382789;2806;2;1
136;c35a98179953ce681aeb936a6b419b14;;f;23;0;16;417,551,732,493,001;2,5;727;282;60;375;0;1;2;0;1;2;0;1;2;9850;1;FALSE;0,498516320474777;2907;2;0
137;c35a98179953ce681aeb936a6b419b14;;f;23;0;17;502,279,753,956,658;2,5;694;263;60;375;0;2;1;0;1;2;2;2;3;5017;2;TRUE;0,548961424332344;3134;2;1
138;c35a98179953ce681aeb936a6b419b14;;f;23;0;18;332,524,974,317,326;2,5;727;282;60;375;2;0;1;0;1;2;2;1;3;6150;0;FALSE;0,498516320474777;2482;2;0
139;c35a98179953ce681aeb936a6b419b14;;f;23;0;19;431,554,243,490,391;2,5;694;263;60;375;2;0;1;0;1;2;0;2;2;5401;2;FALSE;0,550445103857567;2448;2;0
140;c35a98179953ce681aeb936a6b419b14;;f;23;0;20;226,405,748,470,205;3;683;256,666,666,666,667;60;375;1;2;0;0;1;2;2;2;2;3211;2;TRUE;0,648367952522255;3149;2;1
141;c35a98179953ce681aeb936a6b419b14;;f;23;0;21;502,732,494,764,348;2,5;727;282;60;375;2;1;0;0;1;2;2;1;3;9489;2;TRUE;0,545994065281899;2879;2;1
142;c35a98179953ce681aeb936a6b419b14;;f;23;0;22;540,794,390,137,616;2,1;714,428,571,428,571;274,761,904,761,905;60;375;0;2;1;0;1;2;0;1;2;4466;2;FALSE;0,502967359050445;1554;2;0
143;c35a98179953ce681aeb936a6b419b14;;f;23;0;23;381,558,243,701,231;2,1;714,428,571,428,571;274,761,904,761,905;60;375;0;1;2;0;1;2;0;1;3;9409;1;FALSE;0,551928783382789;2721;2;0
144;c35a98179953ce681aeb936a6b419b14;;f;23;0;24;546,375,321,317,267;3;738;288,333,333,333,333;60;375;2;1;0;0;1;2;2;1;2;4300;2;TRUE;0,596439169139466;2663;2;1
145;c35a98179953ce681aeb936a6b419b14;;f;23;0;25;324,545,644,599,738;2,5;694;263;60;375;2;1;0;0;1;2;1;2;3;3206;1;TRUE;0,599406528189911;2455;2;1
146;c35a98179953ce681aeb936a6b419b14;;f;23;0;26;0,27613156145193;2,1;714,428,571,428,571;274,761,904,761,905;60;375;0;1;2;0;1;2;0;1;3;7486;0;TRUE;0,502967359050445;2937;2;1
147;c35a98179953ce681aeb936a6b419b14;;f;23;0;27;349,633,732,807,696;2,5;694;263;60;375;0;2;1;0;1;2;2;2;3;6099;2;TRUE;0,752225519287834;5502;2;1
148;c35a98179953ce681aeb936a6b419b14;;f;23;0;28;433,388,476,200,489;2,5;727;282;60;375;2;1;0;0;1;2;2;1;3;9327;2;TRUE;0,603857566765579;4670;2;1
149;c35a98179953ce681aeb936a6b419b14;;f;23;0;29;604,504,946,636,952;2,5;727;282;60;375;2;0;1;0;1;2;2;1;3;9670;0;FALSE;0,545994065281899;2941;2;0
150;c35a98179953ce681aeb936a6b419b14;;f;23;0;30;564,125,600,962,555;2,1;714,428,571,428,571;274,761,904,761,905;60;375;1;2;0;0;1;2;1;1;3;5104;2;FALSE;0,498516320474777;1618;2;0
151;c35a98179953ce681aeb936a6b419b14;;f;23;0;31;596,891,669,611,242;3;738;288,333,333,333,333;60;375;2;0;1;0;1;2;2;1;2;7289;2;TRUE;0,599406528189911;3626;2;1
152;c35a98179953ce681aeb936a6b419b14;;f;23;0;32;0,156587436854396;2,1;706,571,428,571,429;270,238,095,238,095;60;375;1;2;0;0;1;2;2;2;3;3565;1;FALSE;0,550445103857567;2604;2;0
153;c35a98179953ce681aeb936a6b419b14;;f;23;0;33;10,706,929,641,391;3;738;288,333,333,333,333;60;375;2;1;0;0;1;2;2;1;3;4053;2;TRUE;0,697329376854599;3923;2;1
154;c35a98179953ce681aeb936a6b419b14;;f;23;0;34;151,995,221,539,728;2,5;727;282;60;375;2;1;0;0;1;2;2;1;3;5984;2;TRUE;0,502967359050445;2728;2;1
155;c35a98179953ce681aeb936a6b419b14;;f;23;0;35;426,080,192,976,698;3;738;288,333,333,333,333;60;375;2;0;1;0;1;2;2;1;3;12072;0;FALSE;0,553412462908012;3820;2;0
156;c35a98179953ce681aeb936a6b419b14;;f;23;0;36;133,838,070,871,423;2,1;714,428,571,428,571;274,761,904,761,905;60;375;1;2;0;0;1;2;1;1;2;6646;1;TRUE;0,5;2268;2;1
157;c35a98179953ce681aeb936a6b419b14;;f;23;0;37;56,877,830,572,676;3;738;288,333,333,333,333;60;375;0;1;2;0;1;2;0;1;3;15748;0;TRUE;0,746290801186944;4230;2;1
158;c35a98179953ce681aeb936a6b419b14;;f;23;0;38;459,469,600,610,737;3;683;256,666,666,666,667;60;375;0;1;2;0;1;2;1;2;2;3093;1;TRUE;0,896142433234421;3202;2;1
159;c35a98179953ce681aeb936a6b419b14;;f;23;0;39;223,187,567,314,688;2,1;706,571,428,571,429;270,238,095,238,095;60;375;1;2;0;0;1;2;2;2;2;5884;1;FALSE;0,547477744807122;2851;2;0
160;c35a98179953ce681aeb936a6b419b14;;f;23;0;40;288,625,932,865,972;2,1;706,571,428,571,429;270,238,095,238,095;60;375;1;2;0;0;1;2;2;2;3;6860;1;FALSE;0,804154302670623;2188;2;0
161;c35a98179953ce681aeb936a6b419b14;;f;23;0;41;282,554,905,682,274;2,5;694;263;60;375;2;0;1;0;1;2;0;2;2;4329;0;TRUE;0,749258160237389;2637;2;1
162;c35a98179953ce681aeb936a6b419b14;;f;23;0;42;288,732,463,534,202;3;683;256,666,666,666,667;60;375;0;2;1;0;1;2;2;2;2;15455;2;TRUE;0,6513353115727;2047;2;1
163;c35a98179953ce681aeb936a6b419b14;;f;23;0;43;0,264357757797598;2,1;706,571,428,571,429;270,238,095,238,095;60;375;2;1;0;0;1;2;1;2;2;3391;1;TRUE;0,603857566765579;2442;2;1
164;c35a98179953ce681aeb936a6b419b14;;f;23;0;44;206,282,374,169,695;2,1;706,571,428,571,429;270,238,095,238,095;60;375;2;1;0;0;1;2;1;2;2;5137;2;FALSE;0,850148367952522;3178;2;0
165;c35a98179953ce681aeb936a6b419b14;;f;23;0;45;342,619,618,583,506;2,5;694;263;60;375;2;0;1;0;1;2;0;2;2;4164;0;TRUE;0,553412462908012;4912;2;1
166;c35a98179953ce681aeb936a6b419b14;;f;23;0;46;471,042,591,855,454;2,1;706,571,428,571,429;270,238,095,238,095;60;375;2;1;0;0;1;2;1;2;3;6408;2;FALSE;0,548961424332344;1963;2;0
167;c35a98179953ce681aeb936a6b419b14;;f;23;0;47;459,202,518,531,468;3;683;256,666,666,666,667;60;375;0;2;1;0;1;2;2;2;2;3938;2;TRUE;0,697329376854599;3205;2;1
168;c35a98179953ce681aeb936a6b419b14;;f;23;0;48;272,006,679,958,538;2,1;714,428,571,428,571;274,761,904,761,905;60;375;1;0;2;0;1;2;1;1;3;2793;1;TRUE;0,654302670623145;3032;2;1
169;c35a98179953ce681aeb936a6b419b14;;f;23;0;49;293,898,731,410,443;2,5;694;263;60;375;2;0;1;0;1;2;0;2;2;2709;0;TRUE;0,553412462908012;3612;2;1
170;c35a98179953ce681aeb936a6b419b14;;f;23;0;50;291,331,134,027,882;3;738;288,333,333,333,333;60;375;2;1;0;0;1;2;2;1;2;2376;2;TRUE;0,747774480712166;6488;2;1
171;c35a98179953ce681aeb936a6b419b14;;f;23;0;51;447,662,005,558,528;3;738;288,333,333,333,333;60;375;0;1;2;0;1;2;0;1;3;4296;0;TRUE;0,804154302670623;2660;2;1
172;c35a98179953ce681aeb936a6b419b14;;f;23;0;52;30,482,118,033,741;2,1;706,571,428,571,429;270,238,095,238,095;60;375;0;2;1;0;1;2;2;2;3;3576;2;TRUE;0,697329376854599;2595;2;1
173;c35a98179953ce681aeb936a6b419b14;;f;23;0;53;1,276,011,649,899;2,1;714,428,571,428,571;274,761,904,761,905;60;375;0;2;1;0;1;2;0;1;3;9152;0;TRUE;0,64540059347181;5611;2;1
174;c35a98179953ce681aeb936a6b419b14;;f;23;0;54;346,828,101,056,793;2,5;727;282;60;375;0;2;1;0;1;2;0;1;2;6211;0;TRUE;0,548961424332344;4605;2;1
175;c35a98179953ce681aeb936a6b419b14;;f;23;0;55;499,218,291,436,826;2,5;694;263;60;375;0;2;1;0;1;2;2;2;3;5505;2;TRUE;0,547477744807122;4036;2;1
176;c35a98179953ce681aeb936a6b419b14;;f;23;0;56;207,816,622,552,343;2,1;714,428,571,428,571;274,761,904,761,905;60;375;0;2;1;0;1;2;0;1;2;5456;0;TRUE;0,497032640949555;2239;2;1
177;c35a98179953ce681aeb936a6b419b14;;f;23;0;57;191,155,109,452,358;2,5;694;263;60;375;0;1;2;0;1;2;1;2;2;9632;1;TRUE;0,501483679525223;6408;2;1
178;c35a98179953ce681aeb936a6b419b14;;f;23;0;58;0,827158574130973;2,1;714,428,571,428,571;274,761,904,761,905;60;375;0;1;2;0;1;2;0;1;3;8497;0;TRUE;0,547477744807122;1962;2;1
179;c35a98179953ce681aeb936a6b419b14;;f;23;0;59;620,682,045,940,156;3;683;256,666,666,666,667;60;375;2;1;0;0;1;2;1;2;2;2798;1;TRUE;0,749258160237389;4917;2;1
180;c35a98179953ce681aeb936a6b419b14;;f;23;0;60;586,875,907,124,239;2,5;727;282;60;375;0;1;2;0;1;2;0;1;2;4168;0;TRUE;0,554896142433234;2919;2;1
181;c35a98179953ce681aeb936a6b419b14;;f;23;0;61;0,297069153813087;3;683;256,666,666,666,667;60;375;0;1;2;0;1;2;1;2;2;3291;1;TRUE;0,551928783382789;3066;2;1
182;c35a98179953ce681aeb936a6b419b14;;f;23;0;62;530,279,027,412,123;2,5;727;282;60;375;1;2;0;0;1;2;1;1;3;8147;1;TRUE;0,70326409495549;3888;2;1
183;c35a98179953ce681aeb936a6b419b14;;f;23;0;63;200,879,629,801,135;2,5;694;263;60;375;0;1;2;0;1;2;1;2;3;6190;1;TRUE;0,753709198813056;3832;2;1
184;c35a98179953ce681aeb936a6b419b14;;f;23;0;64;290,669,219,762,243;3;683;256,666,666,666,667;60;375;2;0;1;0;1;2;0;2;3;5369;0;TRUE;0,599406528189911;3743;2;1
185;c35a98179953ce681aeb936a6b419b14;;f;23;0;65;164,705,792,072,803;2,5;694;263;60;375;1;0;2;0;1;2;0;2;2;3642;0;TRUE;0,501483679525223;4144;2;1
186;c35a98179953ce681aeb936a6b419b14;;f;23;0;66;240,924,094,117,558;2,1;714,428,571,428,571;274,761,904,761,905;60;375;2;0;1;0;1;2;2;1;3;3715;0;FALSE;0,498516320474777;4318;2;0
187;c35a98179953ce681aeb936a6b419b14;;f;23;0;67;0,126706334671338;2,1;706,571,428,571,429;270,238,095,238,095;60;375;0;1;2;0;1;2;1;2;3;8475;1;TRUE;0,501483679525223;3293;2;1
188;c35a98179953ce681aeb936a6b419b14;;f;23;0;68;593,020,076,053,147;2,1;714,428,571,428,571;274,761,904,761,905;60;375;2;1;0;0;1;2;2;1;2;6854;2;TRUE;0,599406528189911;2617;2;1
189;c35a98179953ce681aeb936a6b419b14;;f;23;0;69;346,733,707,170,825;2,1;714,428,571,428,571;274,761,904,761,905;60;375;1;2;0;0;1;2;1;1;3;9504;2;FALSE;0,746290801186944;3643;2;0
190;c35a98179953ce681aeb936a6b419b14;;f;23;0;70;527,176,207,004,493;3;683;256,666,666,666,667;60;375;1;2;0;0;1;2;2;2;3;6395;2;TRUE;0,5;2042;2;1
191;c35a98179953ce681aeb936a6b419b14;;f;23;0;71;252,644,749,630,136;3;738;288,333,333,333,333;60;375;0;1;2;0;1;2;0;1;3;3395;0;TRUE;0,704747774480712;3679;2;1
192;c35a98179953ce681aeb936a6b419b14;;f;23;0;72;20,845,776,877,501;2,1;706,571,428,571,429;270,238,095,238,095;60;375;0;2;1;0;1;2;2;2;2;5320;0;FALSE;0,5;3270;2;0
193;c35a98179953ce681aeb936a6b419b14;;f;23;0;73;547,957,866,941,385;2,1;706,571,428,571,429;270,238,095,238,095;60;375;1;2;0;0;1;2;2;2;3;3872;1;FALSE;0,599406528189911;3270;2;0
194;c35a98179953ce681aeb936a6b419b14;;f;23;0;74;356,119,803,351,825;3;738;288,333,333,333,333;60;375;2;1;0;0;1;2;2;1;3;3544;2;TRUE;0,6513353115727;3623;2;1
195;c35a98179953ce681aeb936a6b419b14;;f;23;0;75;114,959,128,012,053;2,5;727;282;60;375;0;2;1;0;1;2;0;1;3;4639;0;TRUE;0,602373887240356;1998;2;1
196;c35a98179953ce681aeb936a6b419b14;;f;23;0;76;0,0888963835131523;3;683;256,666,666,666,667;60;375;1;2;0;0;1;2;2;2;3;5130;2;TRUE;0,752225519287834;3075;2;1
197;c35a98179953ce681aeb936a6b419b14;;f;23;0;77;293,547,215,507,552;3;683;256,666,666,666,667;60;375;2;1;0;0;1;2;1;2;2;2798;1;TRUE;0,853115727002967;1555;2;1
198;c35a98179953ce681aeb936a6b419b14;;f;23;0;78;320,709,767,584,575;3;683;256,666,666,666,667;60;375;2;0;1;0;1;2;0;2;2;2932;0;TRUE;0,701780415430267;2073;2;1
199;c35a98179953ce681aeb936a6b419b14;;f;23;0;79;250,943,026,592,509;3;683;256,666,666,666,667;60;375;1;0;2;0;1;2;0;2;2;2944;0;TRUE;0,799703264094956;1657;2;1
200;c35a98179953ce681aeb936a6b419b14;;f;23;0;80;118,217,092,037,445;3;738;288,333,333,333,333;60;375;0;2;1;0;1;2;0;1;2;2845;0;TRUE;0,900593471810089;4324;2;1
201;c35a98179953ce681aeb936a6b419b14;;f;23;0;81;220,834,507,080,596;2,1;714,428,571,428,571;274,761,904,761,905;60;375;2;0;1;0;1;2;2;1;2;6292;2;TRUE;0,596439169139466;3185;2;1
202;c35a98179953ce681aeb936a6b419b14;;f;23;0;82;0,550578299633471;3;738;288,333,333,333,333;60;375;2;1;0;0;1;2;2;1;3;6799;2;TRUE;0,599406528189911;3879;2;1
203;c35a98179953ce681aeb936a6b419b14;;f;23;0;83;332,729,959,950,995;2,1;714,428,571,428,571;274,761,904,761,905;60;375;0;2;1;0;1;2;0;1;2;4049;2;FALSE;0,551928783382789;2663;2;0
204;c35a98179953ce681aeb936a6b419b14;;f;23;0;84;334,452,294,377,994;3;683;256,666,666,666,667;60;375;1;2;0;0;1;2;2;2;2;2630;2;TRUE;0,8486646884273;4687;2;1
205;c35a98179953ce681aeb936a6b419b14;;f;23;0;85;222,743,292,445,595;2,1;706,571,428,571,429;270,238,095,238,095;60;375;0;2;1;0;1;2;2;2;2;8744;2;TRUE;0,498516320474777;1797;2;1
206;c35a98179953ce681aeb936a6b419b14;;f;23;0;86;0,822856482695116;2,1;714,428,571,428,571;274,761,904,761,905;60;375;0;1;2;0;1;2;0;1;3;2754;1;FALSE;0,556379821958457;2330;2;0
207;c35a98179953ce681aeb936a6b419b14;;f;23;0;87;610,722,432,729,493;2,5;727;282;60;375;0;2;1;0;1;2;0;1;3;6168;2;FALSE;0,547477744807122;2298;2;0
208;c35a98179953ce681aeb936a6b419b14;;f;23;0;88;31,247,969,964,703;3;738;288,333,333,333,333;60;375;1;0;2;0;1;2;1;1;3;3761;1;TRUE;0,700296735905044;3677;2;1
209;c35a98179953ce681aeb936a6b419b14;;f;23;0;89;400,177,409,120,166;3;738;288,333,333,333,333;60;375;0;2;1;0;1;2;0;1;2;3203;0;TRUE;0,897626112759644;3671;2;1
210;c35a98179953ce681aeb936a6b419b14;;f;23;0;90;448,488,914,557,078;2,5;694;263;60;375;1;0;2;0;1;2;0;2;3;2908;0;TRUE;0,698813056379822;2394;2;1
211;c35a98179953ce681aeb936a6b419b14;;f;23;0;91;33,920,502,860,928;2,5;694;263;60;375;1;2;0;0;1;2;2;2;2;4649;2;TRUE;0,550445103857567;2643;2;1
212;c35a98179953ce681aeb936a6b419b14;;f;23;0;92;408,178,322,165,354;2,5;727;282;60;375;1;2;0;0;1;2;1;1;2;2903;1;TRUE;0,603857566765579;2235;2;1
213;c35a98179953ce681aeb936a6b419b14;;f;23;0;93;423,301,954,624,856;2,5;694;263;60;375;0;2;1;0;1;2;2;2;3;9352;2;TRUE;0,6513353115727;4433;2;1
214;c35a98179953ce681aeb936a6b419b14;;f;23;0;94;568,260,584,755,545;2,1;706,571,428,571,429;270,238,095,238,095;60;375;1;0;2;0;1;2;0;2;2;5227;0;TRUE;0,531157270029674;2233;2;1
215;c35a98179953ce681aeb936a6b419b14;;f;23;0;95;408,517,940,801,109;2,5;727;282;60;375;0;2;1;0;1;2;0;1;2;2987;0;TRUE;0,550445103857567;4207;2;1
216;c35a98179953ce681aeb936a6b419b14;;f;23;0;96;450,635,425,533,329;3;683;256,666,666,666,667;60;375;0;2;1;0;1;2;2;2;3;2980;2;TRUE;0,562314540059347;1161;2;1
217;c35a98179953ce681aeb936a6b419b14;;f;23;0;97;0,631855586948266;2,1;714,428,571,428,571;274,761,904,761,905;60;375;2;0;1;0;1;2;2;1;2;4215;2;TRUE;0,554896142433234;4859;2;1
218;c35a98179953ce681aeb936a6b419b14;;f;23;0;98;43,100,183,850,775;2,1;706,571,428,571,429;270,238,095,238,095;60;375;0;2;1;0;1;2;2;2;3;6087;2;TRUE;0,501483679525223;2256;2;1
219;c35a98179953ce681aeb936a6b419b14;;f;23;0;99;615,171,007,365,584;3;738;288,333,333,333,333;60;375;0;1;2;0;1;2;0;1;3;3167;0;TRUE;0,704747774480712;2236;2;1
220;c35a98179953ce681aeb936a6b419b14;;f;23;0;100;559,423,994,363,444;3;738;288,333,333,333,333;60;375;1;2;0;0;1;2;1;1;3;2980;1;TRUE;0,646884272997033;2116;2;1
221;c35a98179953ce681aeb936a6b419b14;;f;23;0;101;220,106,926,428,563;2,1;706,571,428,571,429;270,238,095,238,095;60;375;0;2;1;0;1;2;2;2;3;3326;0;FALSE;0,5;2110;2;0
222;c35a98179953ce681aeb936a6b419b14;;f;23;0;102;40,799,580,005,869;2,1;714,428,571,428,571;274,761,904,761,905;60;375;1;2;0;0;1;2;1;1;2;5939;1;TRUE;0,548961424332344;4465;2;1
223;c35a98179953ce681aeb936a6b419b14;;f;23;0;103;491,194,060,551,459;2,1;706,571,428,571,429;270,238,095,238,095;60;375;1;2;0;0;1;2;2;2;2;4789;2;TRUE;0,497032640949555;2274;2;1
224;c35a98179953ce681aeb936a6b419b14;;f;23;0;104;248,489,988,101,543;2,5;694;263;60;375;1;0;2;0;1;2;0;2;2;2624;0;TRUE;0,704747774480712;3005;2;1
225;c35a98179953ce681aeb936a6b419b14;;f;23;0;105;586,219,479,293,074;2,1;706,571,428,571,429;270,238,095,238,095;60;375;2;0;1;0;1;2;0;2;2;3141;0;TRUE;0,5;2313;2;1
226;c35a98179953ce681aeb936a6b419b14;;f;23;0;106;0,219027011803457;3;738;288,333,333,333,333;60;375;1;0;2;0;1;2;1;1;3;2358;1;TRUE;0,802670623145401;5103;2;1
227;c35a98179953ce681aeb936a6b419b14;;f;23;0;107;527,196,026,634,967;2,5;727;282;60;375;2;1;0;0;1;2;2;1;2;3894;1;FALSE;0,498516320474777;1899;2;0
228;c35a98179953ce681aeb936a6b419b14;;f;23;0;108;349,070,271,659,745;2,5;727;282;60;375;2;0;1;0;1;2;2;1;2;2760;0;FALSE;0,749258160237389;4110;2;0
229;c35a98179953ce681aeb936a6b419b14;;f;23;0;109;562,492,188,302,453;2,5;694;263;60;375;0;2;1;0;1;2;2;2;3;5200;2;TRUE;0,534124629080119;2522;2;1
230;c35a98179953ce681aeb936a6b419b14;;f;23;0;110;118,306,609,493,624;3;738;288,333,333,333,333;60;375;1;2;0;0;1;2;1;1;3;2893;1;TRUE;0,602373887240356;3874;2;1
231;c35a98179953ce681aeb936a6b419b14;;f;23;0;111;377,419,400,480,747;2,5;727;282;60;375;1;2;0;0;1;2;1;1;2;4519;1;TRUE;0,649851632047478;2154;2;1
232;c35a98179953ce681aeb936a6b419b14;;f;23;0;112;0,318220020305395;2,5;694;263;60;375;1;0;2;0;1;2;0;2;3;4646;0;TRUE;0,701780415430267;5105;2;1
233;c35a98179953ce681aeb936a6b419b14;;f;23;0;113;557,642,817,923,462;3;683;256,666,666,666,667;60;375;0;2;1;0;1;2;2;2;2;2766;2;TRUE;0,851632047477745;3498;2;1
234;c35a98179953ce681aeb936a6b419b14;;f;23;0;114;338,753,388,211,097;3;683;256,666,666,666,667;60;375;1;0;2;0;1;2;0;2;2;5248;0;TRUE;0,597922848664688;4479;2;1
235;c35a98179953ce681aeb936a6b419b14;;f;23;0;115;204,375,610,948,187;2,1;714,428,571,428,571;274,761,904,761,905;60;375;1;2;0;0;1;2;1;1;3;4307;1;TRUE;0,599406528189911;2202;2;1
236;c35a98179953ce681aeb936a6b419b14;;f;23;0;116;458,424,764,164,362;2,5;694;263;60;375;1;2;0;0;1;2;2;2;2;2892;1;FALSE;0,504451038575668;2864;2;0
237;c35a98179953ce681aeb936a6b419b14;;f;23;0;117;0,0149279900343917;2,5;694;263;60;375;2;1;0;0;1;2;1;2;3;5992;1;TRUE;0,646884272997033;5149;2;1
238;c35a98179953ce681aeb936a6b419b14;;f;23;0;118;457,090,024,794,491;2,5;694;263;60;375;0;2;1;0;1;2;2;2;2;4760;2;TRUE;0,798219584569733;4502;2;1
239;c35a98179953ce681aeb936a6b419b14;;f;23;0;119;0,296632314514142;2,1;706,571,428,571,429;270,238,095,238,095;60;375;1;0;2;0;1;2;0;2;2;4788;0;TRUE;0,597922848664688;3718;2;1
240;c35a98179953ce681aeb936a6b419b14;;f;23;0;120;201,376,570,516,859;2,1;706,571,428,571,429;270,238,095,238,095;60;375;2;0;1;0;1;2;0;2;3;3623;0;TRUE;0,553412462908012;4294;2;1
241;1cd7be5e794caebbfb56c74cd1f005b1;;f;27;0;1;0,761372112984784;2,5;727;282;60;375;1;0;2;0;1;2;1;1;2;15313;0;FALSE;0,504451038575668;6023;3;0
242;1cd7be5e794caebbfb56c74cd1f005b1;;f;27;0;2;0,679532203828904;2,1;714,428,571,428,571;274,761,904,761,905;60;375;1;0;2;0;1;2;1;1;2;6129;0;FALSE;0,5;1383;3;0
243;1cd7be5e794caebbfb56c74cd1f005b1;;f;27;0;3;451,374,424,280,801;3;683;256,666,666,666,667;60;375;2;1;0;0;1;2;1;2;2;8165;1;TRUE;0,603857566765579;7687;3;1
244;1cd7be5e794caebbfb56c74cd1f005b1;;f;27;0;4;518,179,602,779,085;2,5;727;282;60;375;2;1;0;0;1;2;2;1;3;11708;2;TRUE;0,602373887240356;4373;3;1
245;1cd7be5e794caebbfb56c74cd1f005b1;;f;27;0;5;313,776,992,638,031;2,5;727;282;60;375;1;2;0;0;1;2;1;1;3;8320;1;TRUE;0,603857566765579;3341;3;1
246;1cd7be5e794caebbfb56c74cd1f005b1;;f;27;0;6;18,703,826,040,114;2,5;694;263;60;375;2;0;1;0;1;2;0;2;2;8022;0;TRUE;0,599406528189911;2864;3;1
247;1cd7be5e794caebbfb56c74cd1f005b1;;f;27;0;7;365,004,285,594,826;2,5;727;282;60;375;1;2;0;0;1;2;1;1;2;4783;1;TRUE;0,70326409495549;1489;3;1
248;1cd7be5e794caebbfb56c74cd1f005b1;;f;27;0;8;330,385,132,754,673;3;738;288,333,333,333,333;60;375;1;0;2;0;1;2;1;1;3;3898;1;TRUE;0,596439169139466;2164;3;1
249;1cd7be5e794caebbfb56c74cd1f005b1;;f;27;0;9;135,376,314,250,593;2,1;706,571,428,571,429;270,238,095,238,095;60;375;0;1;2;0;1;2;1;2;2;4553;0;FALSE;0,504451038575668;1613;3;0
250;1cd7be5e794caebbfb56c74cd1f005b1;;f;27;0;10;177,620,792,508,749;2,5;727;282;60;375;2;1;0;0;1;2;2;1;2;3082;2;TRUE;0,600890207715134;2970;3;1
251;1cd7be5e794caebbfb56c74cd1f005b1;;f;27;0;11;0,173820031235005;3;738;288,333,333,333,333;60;375;1;0;2;0;1;2;1;1;3;5170;1;TRUE;0,701780415430267;2033;3;1
252;1cd7be5e794caebbfb56c74cd1f005b1;;f;27;0;12;225,757,816,425,348;2,1;706,571,428,571,429;270,238,095,238,095;60;375;1;0;2;0;1;2;0;2;3;9869;0;TRUE;0,698813056379822;3068;3;1
253;1cd7be5e794caebbfb56c74cd1f005b1;;f;27;0;13;468,492,198,289,416;3;683;256,666,666,666,667;60;375;2;0;1;0;1;2;0;2;2;3493;0;TRUE;0,495548961424332;2689;3;1
255;1cd7be5e794caebbfb56c74cd1f005b1;;f;27;0;15;501,604,628,058,819;2,1;706,571,428,571,429;270,238,095,238,095;60;375;0;1;2;0;1;2;1;2;3;3209;0;FALSE;0,495548961424332;3667;3;0
257;1cd7be5e794caebbfb56c74cd1f005b1;;f;27;0;17;589,374,444,341,928;2,5;727;282;60;375;2;1;0;0;1;2;2;1;2;4061;1;FALSE;0,495548961424332;2827;3;0
258;1cd7be5e794caebbfb56c74cd1f005b1;;f;27;0;18;35,451,139,906,299;3;683;256,666,666,666,667;60;375;1;2;0;0;1;2;2;2;2;3107;1;FALSE;0,495548961424332;2574;3;0
259;1cd7be5e794caebbfb56c74cd1f005b1;;f;27;0;19;3,601,206,309,354;3;738;288,333,333,333,333;60;375;2;1;0;0;1;2;2;1;2;4073;2;TRUE;0,5;2691;3;1
260;1cd7be5e794caebbfb56c74cd1f005b1;;f;27;0;20;249,708,633,156,918;3;683;256,666,666,666,667;60;375;1;2;0;0;1;2;2;2;2;3306;2;TRUE;0,5;1743;3;1
261;1cd7be5e794caebbfb56c74cd1f005b1;;f;27;0;21;356,582,206,268,854;2,1;706,571,428,571,429;270,238,095,238,095;60;375;0;2;1;0;1;2;2;2;2;2120;2;TRUE;0,602373887240356;3356;3;1
262;1cd7be5e794caebbfb56c74cd1f005b1;;f;27;0;22;46,599,032,832,288;3;683;256,666,666,666,667;60;375;1;2;0;0;1;2;2;2;3;2641;2;TRUE;0,599406528189911;2742;3;1
263;1cd7be5e794caebbfb56c74cd1f005b1;;f;27;0;23;0,808329838044933;2,1;706,571,428,571,429;270,238,095,238,095;60;375;1;2;0;0;1;2;2;2;3;2982;1;FALSE;0,5;2907;3;0
264;1cd7be5e794caebbfb56c74cd1f005b1;;f;27;0;24;60,823,382,187,324;2,5;727;282;60;375;0;2;1;0;1;2;0;1;3;6919;2;FALSE;0,495548961424332;2451;3;0
265;1cd7be5e794caebbfb56c74cd1f005b1;;f;27;0;25;610,504,349,717,938;2,1;706,571,428,571,429;270,238,095,238,095;60;375;2;0;1;0;1;2;0;2;2;5904;2;FALSE;0,504451038575668;2234;3;0
266;1cd7be5e794caebbfb56c74cd1f005b1;;f;27;0;26;376,361,932,515,186;2,1;706,571,428,571,429;270,238,095,238,095;60;375;1;2;0;0;1;2;2;2;2;5294;1;FALSE;0,501483679525223;2555;3;0
267;1cd7be5e794caebbfb56c74cd1f005b1;;f;27;0;27;547,181,033,970,516;2,1;714,428,571,428,571;274,761,904,761,905;60;375;1;2;0;0;1;2;1;1;2;3498;2;FALSE;0,497032640949555;1672;3;0
268;1cd7be5e794caebbfb56c74cd1f005b1;;f;27;0;28;490,205,634,380,012;3;738;288,333,333,333,333;60;375;0;1;2;0;1;2;0;1;3;3709;1;FALSE;0,596439169139466;2370;3;0
269;1cd7be5e794caebbfb56c74cd1f005b1;;f;27;0;29;389,093,526,366,977;2,1;706,571,428,571,429;270,238,095,238,095;60;375;0;1;2;0;1;2;1;2;3;5280;1;TRUE;0,603857566765579;3442;3;1
270;1cd7be5e794caebbfb56c74cd1f005b1;;f;27;0;30;261,922,232,691,179;2,5;727;282;60;375;0;1;2;0;1;2;0;1;2;4625;1;FALSE;0,5;3724;3;0
271;1cd7be5e794caebbfb56c74cd1f005b1;;f;27;0;31;424,262,563,115,013;2,5;727;282;60;375;0;2;1;0;1;2;0;1;2;1676;0;TRUE;0,600890207715134;4001;3;1
272;1cd7be5e794caebbfb56c74cd1f005b1;;f;27;0;32;463,568,274,503,954;2,5;727;282;60;375;1;2;0;0;1;2;1;1;2;3004;1;TRUE;0,602373887240356;1820;3;1
273;1cd7be5e794caebbfb56c74cd1f005b1;;f;27;0;33;581,885,672,070,527;3;683;256,666,666,666,667;60;375;1;2;0;0;1;2;2;2;2;3187;2;TRUE;0,600890207715134;2096;3;1
274;1cd7be5e794caebbfb56c74cd1f005b1;;f;27;0;34;421,647,117,724,966;2,5;727;282;60;375;1;0;2;0;1;2;1;1;3;7681;1;TRUE;0,5;2164;3;1
275;1cd7be5e794caebbfb56c74cd1f005b1;;f;27;0;35;374,433,544,215,349;3;738;288,333,333,333,333;60;375;1;2;0;0;1;2;1;1;2;2934;1;TRUE;0,497032640949555;2826;3;1
276;1cd7be5e794caebbfb56c74cd1f005b1;;f;27;0;36;144,648,656,153,635;2,5;727;282;60;375;2;0;1;0;1;2;2;1;3;8576;2;TRUE;0,497032640949555;4102;3;1
277;1cd7be5e794caebbfb56c74cd1f005b1;;f;27;0;37;613,338,489,977,239;2,1;714,428,571,428,571;274,761,904,761,905;60;375;0;1;2;0;1;2;0;1;2;9167;1;FALSE;0,5;2334;3;0
278;1cd7be5e794caebbfb56c74cd1f005b1;;f;27;0;38;0,333657780268454;2,5;694;263;60;375;1;0;2;0;1;2;0;2;2;2132;0;TRUE;0,501483679525223;1551;3;1
279;1cd7be5e794caebbfb56c74cd1f005b1;;f;27;0;39;278,175,391,743,771;2,5;694;263;60;375;0;2;1;0;1;2;2;2;3;4743;0;FALSE;0,495548961424332;2384;3;0
280;1cd7be5e794caebbfb56c74cd1f005b1;;f;27;0;40;605,181,471,037,883;3;738;288,333,333,333,333;60;375;1;2;0;0;1;2;1;1;3;2351;1;TRUE;0,602373887240356;3847;3;1
281;1cd7be5e794caebbfb56c74cd1f005b1;;f;27;0;41;13,246,172,647,172;3;683;256,666,666,666,667;60;375;2;1;0;0;1;2;1;2;2;1571;1;TRUE;0,70326409495549;1517;3;1
282;1cd7be5e794caebbfb56c74cd1f005b1;;f;27;0;42;224,872,831,375,108;2,5;727;282;60;375;1;0;2;0;1;2;1;1;2;2355;0;FALSE;0,497032640949555;1942;3;0
283;1cd7be5e794caebbfb56c74cd1f005b1;;f;27;0;43;429,478,188,706,953;2,1;714,428,571,428,571;274,761,904,761,905;60;375;2;1;0;0;1;2;2;1;2;9834;1;FALSE;0,497032640949555;1434;3;0
284;1cd7be5e794caebbfb56c74cd1f005b1;;f;27;0;44;386,871,731,558,087;3;683;256,666,666,666,667;60;375;1;0;2;0;1;2;0;2;2;2344;0;TRUE;0,5;3617;3;1
285;1cd7be5e794caebbfb56c74cd1f005b1;;f;27;0;45;151,216,909,577,763;3;738;288,333,333,333,333;60;375;2;0;1;0;1;2;2;1;3;9653;2;TRUE;0,498516320474777;2013;3;1
286;1cd7be5e794caebbfb56c74cd1f005b1;;f;27;0;46;495,458,550,997,305;2,5;727;282;60;375;0;1;2;0;1;2;0;1;2;8021;0;TRUE;0,5;2573;3;1
287;1cd7be5e794caebbfb56c74cd1f005b1;;f;27;0;47;0,933646137877856;2,5;727;282;60;375;2;0;1;0;1;2;2;1;3;1852;2;TRUE;0,600890207715134;1515;3;1
288;1cd7be5e794caebbfb56c74cd1f005b1;;f;27;0;48;504,562,207,971,312;3;738;288,333,333,333,333;60;375;1;0;2;0;1;2;1;1;3;1852;1;TRUE;0,498516320474777;1192;3;1
289;1cd7be5e794caebbfb56c74cd1f005b1;;f;27;0;49;0,196454239393063;3;738;288,333,333,333,333;60;375;1;2;0;0;1;2;1;1;2;1805;1;TRUE;0,599406528189911;1708;3;1
290;1cd7be5e794caebbfb56c74cd1f005b1;;f;27;0;50;537,741,344,322,726;3;683;256,666,666,666,667;60;375;2;1;0;0;1;2;1;2;2;2002;1;TRUE;0,501483679525223;3440;3;1
291;1cd7be5e794caebbfb56c74cd1f005b1;;f;27;0;51;204,020,496,979,444;3;683;256,666,666,666,667;60;375;0;2;1;0;1;2;2;2;3;2159;2;TRUE;0,600890207715134;3374;3;1
292;1cd7be5e794caebbfb56c74cd1f005b1;;f;27;0;52;187,108,600,125,244;3;738;288,333,333,333,333;60;375;0;1;2;0;1;2;0;1;3;4324;1;FALSE;0,495548961424332;2200;3;0
293;1cd7be5e794caebbfb56c74cd1f005b1;;f;27;0;53;529,749,633,004,741;2,5;694;263;60;375;1;0;2;0;1;2;0;2;3;3827;0;TRUE;0,498516320474777;1911;3;1
294;1cd7be5e794caebbfb56c74cd1f005b1;;f;27;0;54;398,334,890,160,955;3;683;256,666,666,666,667;60;375;0;2;1;0;1;2;2;2;3;2485;0;FALSE;0,5;1778;3;0
295;1cd7be5e794caebbfb56c74cd1f005b1;;f;27;0;55;589,071,173,455,335;2,1;706,571,428,571,429;270,238,095,238,095;60;375;2;1;0;0;1;2;1;2;3;2323;1;TRUE;0,498516320474777;2396;3;1
296;1cd7be5e794caebbfb56c74cd1f005b1;;f;27;0;56;434,451,000,715,887;2,1;714,428,571,428,571;274,761,904,761,905;60;375;0;1;2;0;1;2;0;1;3;2251;1;FALSE;0,497032640949555;2909;3;0
297;1cd7be5e794caebbfb56c74cd1f005b1;;f;27;0;57;442,838,916,400,963;3;683;256,666,666,666,667;60;375;2;0;1;0;1;2;0;2;3;2963;0;TRUE;0,5;1599;3;1
298;1cd7be5e794caebbfb56c74cd1f005b1;;f;27;0;58;399,212,777,106,412;3;683;256,666,666,666,667;60;375;0;2;1;0;1;2;2;2;2;2526;2;TRUE;0,597922848664688;2972;3;1
299;1cd7be5e794caebbfb56c74cd1f005b1;;f;27;0;59;328,354,984,766,655;3;683;256,666,666,666,667;60;375;2;1;0;0;1;2;1;2;3;2646;1;TRUE;0,597922848664688;2326;3;1
300;1cd7be5e794caebbfb56c74cd1f005b1;;f;27;0;60;532,574,575,534,645;2,5;694;263;60;375;0;2;1;0;1;2;2;2;3;2797;0;FALSE;0,501483679525223;2407;3;0
301;1cd7be5e794caebbfb56c74cd1f005b1;;f;27;0;61;514,642,239,088,715;2,1;714,428,571,428,571;274,761,904,761,905;60;375;1;0;2;0;1;2;1;1;2;6587;0;FALSE;0,498516320474777;1984;3;0
302;1cd7be5e794caebbfb56c74cd1f005b1;;f;27;0;62;405,830,787,416,621;2,5;694;263;60;375;1;2;0;0;1;2;2;2;3;4449;1;FALSE;0,5;2585;3;0
303;1cd7be5e794caebbfb56c74cd1f005b1;;f;27;0;63;291,269,075,955,574;2,1;706,571,428,571,429;270,238,095,238,095;60;375;1;0;2;0;1;2;0;2;3;3525;1;FALSE;0,498516320474777;1517;3;0
304;1cd7be5e794caebbfb56c74cd1f005b1;;f;27;0;64;337,959,390,569,045;2,5;694;263;60;375;2;0;1;0;1;2;0;2;3;2387;0;TRUE;0,600890207715134;1552;3;1
305;1cd7be5e794caebbfb56c74cd1f005b1;;f;27;0;65;0,247333491864449;2,1;714,428,571,428,571;274,761,904,761,905;60;375;0;2;1;0;1;2;0;1;3;3838;2;FALSE;0,502967359050445;1637;3;0
306;1cd7be5e794caebbfb56c74cd1f005b1;;f;27;0;66;194,746,720,778,941;2,5;727;282;60;375;1;2;0;0;1;2;1;1;3;2055;1;TRUE;0,602373887240356;2333;3;1
307;1cd7be5e794caebbfb56c74cd1f005b1;;f;27;0;67;181,413,865,804,183;2,5;727;282;60;375;2;0;1;0;1;2;2;1;2;3003;0;FALSE;0,5;2623;3;0
308;1cd7be5e794caebbfb56c74cd1f005b1;;f;27;0;68;406,297,779,223,655;3;683;256,666,666,666,667;60;375;1;0;2;0;1;2;0;2;2;2234;0;TRUE;0,695845697329377;1612;3;1
309;1cd7be5e794caebbfb56c74cd1f005b1;;f;27;0;69;205,046,440,102,402;2,1;706,571,428,571,429;270,238,095,238,095;60;375;1;2;0;0;1;2;2;2;3;2332;1;FALSE;0,501483679525223;2296;3;0
310;1cd7be5e794caebbfb56c74cd1f005b1;;f;27;0;70;487,118,097,381,253;2,5;727;282;60;375;2;1;0;0;1;2;2;1;2;2981;2;TRUE;0,599406528189911;2298;3;1
311;1cd7be5e794caebbfb56c74cd1f005b1;;f;27;0;71;105,904,443,366,779;3;738;288,333,333,333,333;60;375;2;1;0;0;1;2;2;1;2;5355;2;TRUE;0,599406528189911;2608;3;1
312;1cd7be5e794caebbfb56c74cd1f005b1;;f;27;0;72;594,347,978,567,766;2,5;694;263;60;375;0;1;2;0;1;2;1;2;3;3093;0;FALSE;0,502967359050445;2203;3;0
313;1cd7be5e794caebbfb56c74cd1f005b1;;f;27;0;73;593,601,324,753,556;2,1;714,428,571,428,571;274,761,904,761,905;60;375;1;0;2;0;1;2;1;1;2;4037;0;FALSE;0,497032640949555;1565;3;0
314;1cd7be5e794caebbfb56c74cd1f005b1;;f;27;0;74;278,024,490,657,782;3;683;256,666,666,666,667;60;375;2;1;0;0;1;2;1;2;3;1792;1;TRUE;0,698813056379822;2777;3;1
315;1cd7be5e794caebbfb56c74cd1f005b1;;f;27;0;75;509,566,876,689,202;2,1;706,571,428,571,429;270,238,095,238,095;60;375;2;0;1;0;1;2;0;2;2;4984;0;TRUE;0,497032640949555;1881;3;1
316;1cd7be5e794caebbfb56c74cd1f005b1;;f;27;0;76;531,980,192,406,752;2,1;714,428,571,428,571;274,761,904,761,905;60;375;2;0;1;0;1;2;2;1;2;1982;0;FALSE;0,504451038575668;1687;3;0
317;1cd7be5e794caebbfb56c74cd1f005b1;;f;27;0;77;27,221,106,373,104;2,5;694;263;60;375;1;2;0;0;1;2;2;2;3;3757;2;TRUE;0,502967359050445;2514;3;1
318;1cd7be5e794caebbfb56c74cd1f005b1;;f;27;0;78;436,419,143,386,791;2,1;714,428,571,428,571;274,761,904,761,905;60;375;0;1;2;0;1;2;0;1;3;2572;0;TRUE;0,498516320474777;3029;3;1
319;1cd7be5e794caebbfb56c74cd1f005b1;;f;27;0;79;578,495,253,783,236;3;738;288,333,333,333,333;60;375;1;0;2;0;1;2;1;1;3;2604;0;FALSE;0,501483679525223;2093;3;0
320;1cd7be5e794caebbfb56c74cd1f005b1;;f;27;0;80;491,760,052,956,777;3;738;288,333,333,333,333;60;375;0;1;2;0;1;2;0;1;2;2428;0;TRUE;0,600890207715134;1706;3;1
321;1cd7be5e794caebbfb56c74cd1f005b1;;f;27;0;81;156,415,603,516,718;2,1;706,571,428,571,429;270,238,095,238,095;60;375;1;2;0;0;1;2;2;2;3;3712;2;TRUE;0,498516320474777;1789;3;1
322;1cd7be5e794caebbfb56c74cd1f005b1;;f;27;0;82;271,121,662,681,958;2,5;694;263;60;375;2;0;1;0;1;2;0;2;2;3539;2;FALSE;0,5;894;3;0
323;1cd7be5e794caebbfb56c74cd1f005b1;;f;27;0;83;356,686,704,083,737;2,1;706,571,428,571,429;270,238,095,238,095;60;375;2;0;1;0;1;2;0;2;2;2425;0;TRUE;0,5;3160;3;1
324;1cd7be5e794caebbfb56c74cd1f005b1;;f;27;0;84;122,376,828,883,197;2,1;714,428,571,428,571;274,761,904,761,905;60;375;1;0;2;0;1;2;1;1;3;1962;0;FALSE;0,495548961424332;1710;3;0
325;1cd7be5e794caebbfb56c74cd1f005b1;;f;27;0;85;556,323,034,877,437;3;683;256,666,666,666,667;60;375;1;0;2;0;1;2;0;2;3;3402;0;TRUE;0,501483679525223;1947;3;1
326;1cd7be5e794caebbfb56c74cd1f005b1;;f;27;0;86;239,818,370,926,512;3;738;288,333,333,333,333;60;375;2;1;0;0;1;2;2;1;3;2232;1;FALSE;0,495548961424332;1687;3;0
327;1cd7be5e794caebbfb56c74cd1f005b1;;f;27;0;87;157,600,303,188,224;2,1;714,428,571,428,571;274,761,904,761,905;60;375;1;0;2;0;1;2;1;1;2;2733;1;TRUE;0,497032640949555;1001;3;1
328;1cd7be5e794caebbfb56c74cd1f005b1;;f;27;0;88;286,580,940,313,551;3;738;288,333,333,333,333;60;375;1;2;0;0;1;2;1;1;2;2525;1;TRUE;0,603857566765579;2371;3;1
329;1cd7be5e794caebbfb56c74cd1f005b1;;f;27;0;89;307,515,067,810,669;3;738;288,333,333,333,333;60;375;0;2;1;0;1;2;0;1;3;2205;0;TRUE;0,695845697329377;2919;3;1
330;1cd7be5e794caebbfb56c74cd1f005b1;;f;27;0;90;476,630,147,615,206;2,5;727;282;60;375;2;0;1;0;1;2;2;1;3;2585;2;TRUE;0,70326409495549;1745;3;1
331;1cd7be5e794caebbfb56c74cd1f005b1;;f;27;0;91;140,425,657,436,345;2,5;727;282;60;375;0;2;1;0;1;2;0;1;3;2576;0;TRUE;0,495548961424332;2338;3;1
332;1cd7be5e794caebbfb56c74cd1f005b1;;f;27;0;92;0,99577404766286;3;738;288,333,333,333,333;60;375;0;2;1;0;1;2;0;1;2;1937;0;TRUE;0,602373887240356;3102;3;1
333;1cd7be5e794caebbfb56c74cd1f005b1;;f;27;0;93;568,028,082,186,024;2,1;714,428,571,428,571;274,761,904,761,905;60;375;2;0;1;0;1;2;2;1;2;3413;0;FALSE;0,498516320474777;2154;3;0
334;1cd7be5e794caebbfb56c74cd1f005b1;;f;27;0;94;524,199,013,542,002;2,5;727;282;60;375;0;2;1;0;1;2;0;1;2;1446;0;TRUE;0,495548961424332;2741;3;1
335;1cd7be5e794caebbfb56c74cd1f005b1;;f;27;0;95;146,142,663,621,179;2,5;694;263;60;375;0;1;2;0;1;2;1;2;3;2839;1;TRUE;0,501483679525223;1877;3;1
336;1cd7be5e794caebbfb56c74cd1f005b1;;f;27;0;96;0,67574834201235;3;683;256,666,666,666,667;60;375;1;0;2;0;1;2;0;2;2;1873;0;TRUE;0,498516320474777;3390;3;1
337;1cd7be5e794caebbfb56c74cd1f005b1;;f;27;0;97;528,246,444,607,294;3;683;256,666,666,666,667;60;375;0;1;2;0;1;2;1;2;3;1916;1;TRUE;0,596439169139466;2055;3;1
338;1cd7be5e794caebbfb56c74cd1f005b1;;f;27;0;98;0,460778716738958;2,1;714,428,571,428,571;274,761,904,761,905;60;375;2;0;1;0;1;2;2;1;3;2775;0;FALSE;0,501483679525223;1598;3;0
339;1cd7be5e794caebbfb56c74cd1f005b1;;f;27;0;99;250,292,886,038,715;3;683;256,666,666,666,667;60;375;2;0;1;0;1;2;0;2;2;3654;0;TRUE;0,600890207715134;3134;3;1
340;1cd7be5e794caebbfb56c74cd1f005b1;;f;27;0;100;370,596,545,556,946;2,5;694;263;60;375;0;2;1;0;1;2;2;2;2;2253;2;TRUE;0,498516320474777;1887;3;1
341;1cd7be5e794caebbfb56c74cd1f005b1;;f;27;0;101;0,896433700810275;2,5;727;282;60;375;2;0;1;0;1;2;2;1;3;3158;2;TRUE;0,501483679525223;1887;3;1
342;1cd7be5e794caebbfb56c74cd1f005b1;;f;27;0;102;536,790,171,787,982;2,1;714,428,571,428,571;274,761,904,761,905;60;375;0;2;1;0;1;2;0;1;2;2193;0;TRUE;0,50593471810089;1528;3;1
343;1cd7be5e794caebbfb56c74cd1f005b1;;f;27;0;103;153,621,339,728,331;3;683;256,666,666,666,667;60;375;2;0;1;0;1;2;0;2;3;5673;0;TRUE;0,501483679525223;2360;3;1
344;1cd7be5e794caebbfb56c74cd1f005b1;;f;27;0;104;0,0752667902221046;2,1;714,428,571,428,571;274,761,904,761,905;60;375;1;0;2;0;1;2;1;1;2;2394;1;TRUE;0,497032640949555;3499;3;1
345;1cd7be5e794caebbfb56c74cd1f005b1;;f;27;0;105;100,318,531,723,381;2,1;714,428,571,428,571;274,761,904,761,905;60;375;1;2;0;0;1;2;1;1;3;3964;2;FALSE;0,502967359050445;1662;3;0
346;1cd7be5e794caebbfb56c74cd1f005b1;;f;27;0;106;417,785,559,888,159;2,5;694;263;60;375;2;0;1;0;1;2;0;2;2;10900;0;TRUE;0,498516320474777;1698;3;1
347;1cd7be5e794caebbfb56c74cd1f005b1;;f;27;0;107;339,055,701,970,748;3;738;288,333,333,333,333;60;375;0;2;1;0;1;2;0;1;3;2107;0;TRUE;0,597922848664688;2873;3;1
348;1cd7be5e794caebbfb56c74cd1f005b1;;f;27;0;108;397,619,675,283,993;2,1;706,571,428,571,429;270,238,095,238,095;60;375;0;2;1;0;1;2;2;2;2;1981;2;TRUE;0,597922848664688;2705;3;1
349;1cd7be5e794caebbfb56c74cd1f005b1;;f;27;0;109;115,454,620,930,246;2,1;714,428,571,428,571;274,761,904,761,905;60;375;1;0;2;0;1;2;1;1;3;3390;0;FALSE;0,5;2971;3;0
350;1cd7be5e794caebbfb56c74cd1f005b1;;f;27;0;110;227,539,301,998,436;2,5;694;263;60;375;2;1;0;0;1;2;1;2;2;3626;1;TRUE;0,495548961424332;2992;3;1
351;1cd7be5e794caebbfb56c74cd1f005b1;;f;27;0;111;508,521,895,325,833;2,5;694;263;60;375;1;2;0;0;1;2;2;2;2;2478;2;TRUE;0,497032640949555;1769;3;1
352;1cd7be5e794caebbfb56c74cd1f005b1;;f;27;0;112;284,357,717,679,738;2,5;727;282;60;375;1;2;0;0;1;2;1;1;3;3822;2;FALSE;0,497032640949555;3219;3;0
353;1cd7be5e794caebbfb56c74cd1f005b1;;f;27;0;113;274,441,218,528,488;2,1;714,428,571,428,571;274,761,904,761,905;60;375;0;2;1;0;1;2;0;1;2;3856;0;TRUE;0,498516320474777;3931;3;1
354;1cd7be5e794caebbfb56c74cd1f005b1;;f;27;0;114;0,995830852068972;2,1;706,571,428,571,429;270,238,095,238,095;60;375;2;1;0;0;1;2;1;2;3;3624;1;TRUE;0,497032640949555;2363;3;1
355;1cd7be5e794caebbfb56c74cd1f005b1;;f;27;0;115;108,987,889,388,426;2,5;727;282;60;375;0;2;1;0;1;2;0;1;2;6421;2;FALSE;0,497032640949555;2059;3;0
356;1cd7be5e794caebbfb56c74cd1f005b1;;f;27;0;116;349,443,047,068,686;3;738;288,333,333,333,333;60;375;2;1;0;0;1;2;2;1;2;2045;2;TRUE;0,600890207715134;1971;3;1
357;1cd7be5e794caebbfb56c74cd1f005b1;;f;27;0;117;58,619,805,881,136;2,5;727;282;60;375;0;2;1;0;1;2;0;1;3;2319;0;TRUE;0,602373887240356;2292;3;1
358;1cd7be5e794caebbfb56c74cd1f005b1;;f;27;0;118;547,117,450,642,631;2,1;706,571,428,571,429;270,238,095,238,095;60;375;1;0;2;0;1;2;0;2;3;2922;1;FALSE;0,501483679525223;3063;3;0
359;1cd7be5e794caebbfb56c74cd1f005b1;;f;27;0;119;254,657,765,015,506;2,1;714,428,571,428,571;274,761,904,761,905;60;375;2;0;1;0;1;2;2;1;2;6352;2;TRUE;0,501483679525223;1504;3;1
360;1cd7be5e794caebbfb56c74cd1f005b1;;f;27;0;120;445,750,039,208,455;2,1;706,571,428,571,429;270,238,095,238,095;60;375;0;1;2;0;1;2;1;2;3;5230;1;TRUE;0,5;2488;3;1
361;f2ccb4fa75100ad60c7f8402401cdd48;;f;22;0;1;0,65969327308096;2,1;706,571,428,571,429;270,238,095,238,095;60;375;1;2;0;0;1;2;2;2;3;9569;2;TRUE;0,750741839762611;3271;4;1
362;f2ccb4fa75100ad60c7f8402401cdd48;;f;22;0;2;283,310,306,851,676;2,5;694;263;60;375;0;1;2;0;1;2;1;2;2;9476;1;TRUE;0,649851632047478;11856;4;1
363;f2ccb4fa75100ad60c7f8402401cdd48;;f;22;0;3;0,286562693568993;3;738;288,333,333,333,333;60;375;0;2;1;0;1;2;0;1;3;3980;0;TRUE;0,92433234421365;2531;4;1
364;f2ccb4fa75100ad60c7f8402401cdd48;;f;22;0;4;372,753,570,144,651;2,5;727;282;60;375;0;2;1;0;1;2;0;1;3;6659;0;TRUE;0,958456973293769;5552;4;1
365;f2ccb4fa75100ad60c7f8402401cdd48;;f;22;0;5;379,124,111,414,656;2,5;727;282;60;375;1;2;0;0;1;2;1;1;3;7331;1;TRUE;0,958456973293769;4189;4;1
366;f2ccb4fa75100ad60c7f8402401cdd48;;f;22;0;6;287,205,525,786,614;2,1;714,428,571,428,571;274,761,904,761,905;60;375;2;1;0;0;1;2;2;1;2;8343;1;FALSE;0,602373887240356;3185;4;0
367;f2ccb4fa75100ad60c7f8402401cdd48;;f;22;0;7;0,652105459222796;3;738;288,333,333,333,333;60;375;0;1;2;0;1;2;0;1;3;4862;0;TRUE;0,958456973293769;4660;4;1
368;f2ccb4fa75100ad60c7f8402401cdd48;;f;22;0;8;0,24434291689513;2,5;727;282;60;375;0;1;2;0;1;2;0;1;3;9651;0;TRUE;0,857566765578635;2964;4;1
369;f2ccb4fa75100ad60c7f8402401cdd48;;f;22;0;9;222,844,296,421,545;2,5;694;263;60;375;1;0;2;0;1;2;0;2;3;7647;0;TRUE;0,817507418397626;5016;4;1
370;f2ccb4fa75100ad60c7f8402401cdd48;;f;22;0;10;0,119518321624825;2,1;706,571,428,571,429;270,238,095,238,095;60;375;0;2;1;0;1;2;2;2;3;11593;2;TRUE;0,620178041543027;5515;4;1
371;f2ccb4fa75100ad60c7f8402401cdd48;;f;22;0;11;0,941566680421558;2,5;694;263;60;375;0;1;2;0;1;2;1;2;3;3873;1;TRUE;0,762611275964392;2326;4;1
372;f2ccb4fa75100ad60c7f8402401cdd48;;f;22;0;12;203,527,145,282,816;2,5;694;263;60;375;0;1;2;0;1;2;1;2;3;10651;1;TRUE;0,777448071216617;2546;4;1
373;f2ccb4fa75100ad60c7f8402401cdd48;;f;22;0;13;563,077,487,169,919;3;683;256,666,666,666,667;60;375;2;0;1;0;1;2;0;2;3;2514;0;TRUE;0,724035608308605;2927;4;1
374;f2ccb4fa75100ad60c7f8402401cdd48;;f;22;0;14;599,577,335,470,162;2,1;706,571,428,571,429;270,238,095,238,095;60;375;1;0;2;0;1;2;0;2;3;2970;1;FALSE;0,761127596439169;3538;4;0
375;f2ccb4fa75100ad60c7f8402401cdd48;;f;22;0;15;332,640,737,645,006;3;683;256,666,666,666,667;60;375;1;2;0;0;1;2;2;2;3;2395;2;TRUE;0,921364985163205;1672;4;1
376;f2ccb4fa75100ad60c7f8402401cdd48;;f;22;0;16;0,450462785406406;2,5;694;263;60;375;2;0;1;0;1;2;0;2;2;2842;0;TRUE;0,899109792284866;2568;4;1
377;f2ccb4fa75100ad60c7f8402401cdd48;;f;22;0;17;251,827,991,388,274;2,1;714,428,571,428,571;274,761,904,761,905;60;375;2;0;1;0;1;2;2;1;2;3217;2;TRUE;0,86053412462908;4248;4;1
378;f2ccb4fa75100ad60c7f8402401cdd48;;f;22;0;18;158,605,764,670,591;2,5;727;282;60;375;2;1;0;0;1;2;2;1;2;3257;2;TRUE;0,621661721068249;3384;4;1
379;f2ccb4fa75100ad60c7f8402401cdd48;;f;22;0;19;518,056,466,917,919;2,1;706,571,428,571,429;270,238,095,238,095;60;375;1;0;2;0;1;2;0;2;2;3914;0;TRUE;0,698813056379822;3941;4;1
380;f2ccb4fa75100ad60c7f8402401cdd48;;f;22;0;20;354,385,362,407,043;2,5;727;282;60;375;1;2;0;0;1;2;1;1;3;7202;1;TRUE;0,743323442136498;4522;4;1
381;f2ccb4fa75100ad60c7f8402401cdd48;;f;22;0;21;391,839,241,204,924;2,5;727;282;60;375;0;1;2;0;1;2;0;1;3;3797;1;FALSE;0,722551928783383;4224;4;0
382;f2ccb4fa75100ad60c7f8402401cdd48;;f;22;0;22;27,627,912,543,866;2,5;727;282;60;375;1;0;2;0;1;2;1;1;3;9540;1;TRUE;0,655786350148368;5446;4;1
383;f2ccb4fa75100ad60c7f8402401cdd48;;f;22;0;23;105,173,117,265,284;2,1;706,571,428,571,429;270,238,095,238,095;60;375;2;0;1;0;1;2;0;2;2;5524;0;TRUE;0,621661721068249;5894;4;1
384;f2ccb4fa75100ad60c7f8402401cdd48;;f;22;0;24;599,151,268,622,231;2,5;694;263;60;375;2;1;0;0;1;2;1;2;2;3413;1;TRUE;0,817507418397626;8764;4;1
385;f2ccb4fa75100ad60c7f8402401cdd48;;f;22;0;25;459,924,273,306,457;2,1;706,571,428,571,429;270,238,095,238,095;60;375;1;0;2;0;1;2;0;2;3;4967;0;TRUE;0,698813056379822;2824;4;1
386;f2ccb4fa75100ad60c7f8402401cdd48;;f;22;0;26;580,693,904,093,899;2,1;714,428,571,428,571;274,761,904,761,905;60;375;1;0;2;0;1;2;1;1;2;3544;1;TRUE;0,718100890207715;9077;4;1
387;f2ccb4fa75100ad60c7f8402401cdd48;;f;22;0;27;16,818,566,277,342;2,1;714,428,571,428,571;274,761,904,761,905;60;375;1;0;2;0;1;2;1;1;2;4081;1;TRUE;0,704747774480712;3251;4;1
388;f2ccb4fa75100ad60c7f8402401cdd48;;f;22;0;28;36,203,684,846,452;3;683;256,666,666,666,667;60;375;2;1;0;0;1;2;1;2;2;3275;1;TRUE;0,919881305637982;7684;4;1
389;f2ccb4fa75100ad60c7f8402401cdd48;;f;22;0;29;41,169,389,749,173;2,1;714,428,571,428,571;274,761,904,761,905;60;375;2;0;1;0;1;2;2;1;3;6839;0;FALSE;0,841246290801187;3693;4;0
390;f2ccb4fa75100ad60c7f8402401cdd48;;f;22;0;30;277,533,864,707,987;3;683;256,666,666,666,667;60;375;1;0;2;0;1;2;0;2;3;3113;0;TRUE;0,761127596439169;4222;4;1
391;f2ccb4fa75100ad60c7f8402401cdd48;;f;22;0;31;133,101,238,456,673;3;683;256,666,666,666,667;60;375;1;0;2;0;1;2;0;2;3;2318;0;TRUE;0,735905044510386;3712;4;1
392;f2ccb4fa75100ad60c7f8402401cdd48;;f;22;0;32;141,315,968,175,651;3;738;288,333,333,333,333;60;375;2;1;0;0;1;2;2;1;3;6518;2;TRUE;0,915430267062315;4603;4;1
393;f2ccb4fa75100ad60c7f8402401cdd48;;f;22;0;33;20,417,113,121,967;2,1;706,571,428,571,429;270,238,095,238,095;60;375;2;0;1;0;1;2;0;2;2;2702;2;FALSE;0,599406528189911;3462;4;0
394;f2ccb4fa75100ad60c7f8402401cdd48;;f;22;0;34;491,718,336,673,553;3;738;288,333,333,333,333;60;375;0;2;1;0;1;2;0;1;2;2181;0;TRUE;0,77893175074184;2527;4;1
395;f2ccb4fa75100ad60c7f8402401cdd48;;f;22;0;35;269,014,828,735,746;2,1;714,428,571,428,571;274,761,904,761,905;60;375;0;2;1;0;1;2;0;1;2;2870;0;TRUE;0,795252225519288;2949;4;1
396;f2ccb4fa75100ad60c7f8402401cdd48;;f;22;0;36;479,587,719,444,535;2,5;694;263;60;375;1;0;2;0;1;2;0;2;3;9637;0;TRUE;0,562314540059347;2083;4;1
397;f2ccb4fa75100ad60c7f8402401cdd48;;f;22;0;37;513,956,801,849,058;2,5;727;282;60;375;2;1;0;0;1;2;2;1;2;3847;2;TRUE;0,620178041543027;1696;4;1
398;f2ccb4fa75100ad60c7f8402401cdd48;;f;22;0;38;188,352,165,194,234;3;683;256,666,666,666,667;60;375;2;1;0;0;1;2;1;2;3;2282;1;TRUE;0,91839762611276;1937;4;1
399;f2ccb4fa75100ad60c7f8402401cdd48;;f;22;0;39;191,404,669,992,918;3;683;256,666,666,666,667;60;375;2;1;0;0;1;2;1;2;3;4272;1;TRUE;0,697329376854599;3863;4;1
400;f2ccb4fa75100ad60c7f8402401cdd48;;f;22;0;40;303,093,404,800,029;2,1;714,428,571,428,571;274,761,904,761,905;60;375;1;2;0;0;1;2;1;1;3;2883;1;TRUE;0,755192878338279;1752;4;1
401;f2ccb4fa75100ad60c7f8402401cdd48;;f;22;0;41;0,50615187134685;2,1;706,571,428,571,429;270,238,095,238,095;60;375;2;1;0;0;1;2;1;2;2;2955;2;FALSE;0,718100890207715;2707;4;0
402;f2ccb4fa75100ad60c7f8402401cdd48;;f;22;0;42;304,900,811,546,457;3;738;288,333,333,333,333;60;375;2;1;0;0;1;2;2;1;3;3277;2;TRUE;0,704747774480712;4292;4;1
403;f2ccb4fa75100ad60c7f8402401cdd48;;f;22;0;43;168,943,341,878,178;2,1;706,571,428,571,429;270,238,095,238,095;60;375;2;1;0;0;1;2;1;2;3;2286;1;TRUE;0,859050445103858;2673;4;1
404;f2ccb4fa75100ad60c7f8402401cdd48;;f;22;0;44;387,700,290,494,021;2,1;706,571,428,571,429;270,238,095,238,095;60;375;2;0;1;0;1;2;0;2;2;7050;2;FALSE;0,556379821958457;2274;4;0
405;f2ccb4fa75100ad60c7f8402401cdd48;;f;22;0;45;508,424,009,105,309;2,1;706,571,428,571,429;270,238,095,238,095;60;375;1;2;0;0;1;2;2;2;3;17850;2;TRUE;0,556379821958457;1588;4;1
406;f2ccb4fa75100ad60c7f8402401cdd48;;f;22;0;46;567,218,018,166,223;3;738;288,333,333,333,333;60;375;2;0;1;0;1;2;2;1;2;2320;2;TRUE;0,664688427299703;4356;4;1
407;f2ccb4fa75100ad60c7f8402401cdd48;;f;22;0;47;471,828,017,474,715;2,5;694;263;60;375;1;0;2;0;1;2;0;2;2;2085;0;TRUE;0,857566765578635;3212;4;1
408;f2ccb4fa75100ad60c7f8402401cdd48;;f;22;0;48;0,744877077083693;2,1;706,571,428,571,429;270,238,095,238,095;60;375;1;0;2;0;1;2;0;2;2;5915;0;TRUE;0,756676557863502;3534;4;1
409;f2ccb4fa75100ad60c7f8402401cdd48;;f;22;0;49;129,414,957,989,687;3;683;256,666,666,666,667;60;375;0;2;1;0;1;2;2;2;3;4512;2;TRUE;0,624629080118694;3966;4;1
410;f2ccb4fa75100ad60c7f8402401cdd48;;f;22;0;50;358,760,169,627,953;2,1;706,571,428,571,429;270,238,095,238,095;60;375;2;0;1;0;1;2;0;2;3;3754;0;TRUE;0,620178041543027;1535;4;1
411;f2ccb4fa75100ad60c7f8402401cdd48;;f;22;0;51;501,029,598,629,815;2,5;727;282;60;375;2;0;1;0;1;2;2;1;2;2428;2;TRUE;0,700296735905044;1770;4;1
412;f2ccb4fa75100ad60c7f8402401cdd48;;f;22;0;52;491,638,357,829,549;2,5;694;263;60;375;0;1;2;0;1;2;1;2;2;3263;1;TRUE;0,738872403560831;3258;4;1
413;f2ccb4fa75100ad60c7f8402401cdd48;;f;22;0;53;0,865062600810121;3;683;256,666,666,666,667;60;375;2;0;1;0;1;2;0;2;2;2754;0;TRUE;0,603857566765579;2095;4;1
414;f2ccb4fa75100ad60c7f8402401cdd48;;f;22;0;54;625,461,547,416,523;2,1;706,571,428,571,429;270,238,095,238,095;60;375;1;2;0;0;1;2;2;2;3;2735;1;FALSE;0,678041543026706;1922;4;0
415;f2ccb4fa75100ad60c7f8402401cdd48;;f;22;0;55;542,634,442,683,255;2,1;714,428,571,428,571;274,761,904,761,905;60;375;1;0;2;0;1;2;1;1;3;4473;1;TRUE;0,655786350148368;4469;4;1
416;f2ccb4fa75100ad60c7f8402401cdd48;;f;22;0;56;48,963,994,904,109;3;683;256,666,666,666,667;60;375;1;2;0;0;1;2;2;2;2;2099;2;TRUE;0,700296735905044;4419;4;1
417;f2ccb4fa75100ad60c7f8402401cdd48;;f;22;0;57;104,565,298,130,498;2,5;727;282;60;375;0;2;1;0;1;2;0;1;3;2469;0;TRUE;0,716617210682493;4185;4;1
418;f2ccb4fa75100ad60c7f8402401cdd48;;f;22;0;58;249,058,202,079,125;2,5;727;282;60;375;0;2;1;0;1;2;0;1;3;4174;0;TRUE;0,915430267062315;3274;4;1
419;f2ccb4fa75100ad60c7f8402401cdd48;;f;22;0;59;527,277,152,261,472;3;683;256,666,666,666,667;60;375;1;2;0;0;1;2;2;2;2;3191;2;TRUE;0,817507418397626;3109;4;1
420;f2ccb4fa75100ad60c7f8402401cdd48;;f;22;0;60;0,909512398968764;3;738;288,333,333,333,333;60;375;2;1;0;0;1;2;2;1;3;2816;2;TRUE;0,902077151335312;3562;4;1
421;f2ccb4fa75100ad60c7f8402401cdd48;;f;22;0;61;53,822,928,605,041;3;738;288,333,333,333,333;60;375;0;1;2;0;1;2;0;1;2;2500;0;TRUE;0,86053412462908;2099;4;1
422;f2ccb4fa75100ad60c7f8402401cdd48;;f;22;0;62;20,446,080,841,314;3;738;288,333,333,333,333;60;375;2;1;0;0;1;2;2;1;3;3326;2;TRUE;0,761127596439169;1934;4;1
423;f2ccb4fa75100ad60c7f8402401cdd48;;f;22;0;63;549,896,505,023,296;2,5;694;263;60;375;1;0;2;0;1;2;0;2;3;5654;0;TRUE;0,623145400593472;4051;4;1
424;f2ccb4fa75100ad60c7f8402401cdd48;;f;22;0;64;0,86188280861593;2,1;706,571,428,571,429;270,238,095,238,095;60;375;2;0;1;0;1;2;0;2;2;5892;0;TRUE;0,562314540059347;3716;4;1
425;f2ccb4fa75100ad60c7f8402401cdd48;;f;22;0;65;19,645,612,016,595;2,1;706,571,428,571,429;270,238,095,238,095;60;375;0;2;1;0;1;2;2;2;3;7803;0;FALSE;0,520771513353116;3792;4;0
426;f2ccb4fa75100ad60c7f8402401cdd48;;f;22;0;66;410,499,221,429,406;3;738;288,333,333,333,333;60;375;0;1;2;0;1;2;0;1;2;12441;1;FALSE;0,602373887240356;3351;4;0
427;f2ccb4fa75100ad60c7f8402401cdd48;;f;22;0;67;231,836,930,739,195;3;683;256,666,666,666,667;60;375;0;2;1;0;1;2;2;2;2;5341;2;TRUE;0,516320474777448;4241;4;1
428;f2ccb4fa75100ad60c7f8402401cdd48;;f;22;0;68;181,621,196,925,887;2,1;714,428,571,428,571;274,761,904,761,905;60;375;2;0;1;0;1;2;2;1;3;2755;2;TRUE;0,519287833827893;3523;4;1
429;f2ccb4fa75100ad60c7f8402401cdd48;;f;22;0;69;620,804,289,863,009;2,5;727;282;60;375;0;1;2;0;1;2;0;1;3;4530;0;TRUE;0,623145400593472;4822;4;1
430;f2ccb4fa75100ad60c7f8402401cdd48;;f;22;0;70;51,316,359,222,191;2,1;714,428,571,428,571;274,761,904,761,905;60;375;0;1;2;0;1;2;0;1;2;2875;1;FALSE;0,799703264094956;4034;4;0
431;f2ccb4fa75100ad60c7f8402401cdd48;;f;22;0;71;0,757622429396932;2,1;706,571,428,571,429;270,238,095,238,095;60;375;1;2;0;0;1;2;2;2;3;3209;1;FALSE;0,857566765578635;4448;4;0
432;f2ccb4fa75100ad60c7f8402401cdd48;;f;22;0;72;449,471,435,135,978;3;738;288,333,333,333,333;60;375;2;0;1;0;1;2;2;1;2;6189;0;FALSE;0,660237388724036;2990;4;0
433;f2ccb4fa75100ad60c7f8402401cdd48;;f;22;0;73;351,496,634,796,359;2,5;727;282;60;375;2;0;1;0;1;2;2;1;2;3077;2;TRUE;0,617210682492582;3774;4;1
434;f2ccb4fa75100ad60c7f8402401cdd48;;f;22;0;74;283,660,554,265,123;2,1;714,428,571,428,571;274,761,904,761,905;60;375;2;1;0;0;1;2;2;1;3;2828;1;FALSE;0,617210682492582;5075;4;0
435;f2ccb4fa75100ad60c7f8402401cdd48;;f;22;0;75;159,555,103,126,717;2,5;727;282;60;375;0;2;1;0;1;2;0;1;2;2426;0;TRUE;0,70326409495549;3605;4;1
436;f2ccb4fa75100ad60c7f8402401cdd48;;f;22;0;76;347,551,990,037,319;3;683;256,666,666,666,667;60;375;0;2;1;0;1;2;2;2;3;2659;2;TRUE;0,722551928783383;2545;4;1
437;f2ccb4fa75100ad60c7f8402401cdd48;;f;22;0;77;0,313390237587071;3;738;288,333,333,333,333;60;375;0;2;1;0;1;2;0;1;3;9109;0;TRUE;0,91839762611276;4016;4;1
438;f2ccb4fa75100ad60c7f8402401cdd48;;f;22;0;78;501,743,635,661,523;2,5;727;282;60;375;0;2;1;0;1;2;0;1;2;5019;2;FALSE;0,643916913946588;2721;4;0
439;f2ccb4fa75100ad60c7f8402401cdd48;;f;22;0;79;356,552,584,817,996;3;738;288,333,333,333,333;60;375;0;1;2;0;1;2;0;1;2;6863;1;FALSE;0,642433234421365;2391;4;0
440;f2ccb4fa75100ad60c7f8402401cdd48;;f;22;0;80;282,889,019,920,542;2,1;706,571,428,571,429;270,238,095,238,095;60;375;1;2;0;0;1;2;2;2;3;3508;2;TRUE;0,664688427299703;5919;4;1
441;f2ccb4fa75100ad60c7f8402401cdd48;;f;22;0;81;497,701,416,743,624;2,1;706,571,428,571,429;270,238,095,238,095;60;375;0;2;1;0;1;2;2;2;2;2412;0;FALSE;0,719584569732938;5783;4;0
442;f2ccb4fa75100ad60c7f8402401cdd48;;f;22;0;82;158,140,687,590,417;3;683;256,666,666,666,667;60;375;1;2;0;0;1;2;2;2;3;4168;2;TRUE;0,556379821958457;4048;4;1
443;f2ccb4fa75100ad60c7f8402401cdd48;;f;22;0;83;376,256,870,312,972;2,1;714,428,571,428,571;274,761,904,761,905;60;375;0;2;1;0;1;2;0;1;2;6155;2;FALSE;0,718100890207715;2039;4;0
444;f2ccb4fa75100ad60c7f8402401cdd48;;f;22;0;84;322,992,368,659,924;2,1;714,428,571,428,571;274,761,904,761,905;60;375;0;1;2;0;1;2;0;1;3;5752;1;FALSE;0,623145400593472;2643;4;0
445;f2ccb4fa75100ad60c7f8402401cdd48;;f;22;0;85;251,315,424,090,214;3;683;256,666,666,666,667;60;375;0;1;2;0;1;2;1;2;2;2568;1;TRUE;0,959940652818991;3898;4;1
446;f2ccb4fa75100ad60c7f8402401cdd48;;f;22;0;86;364,420,256,234,431;2,1;714,428,571,428,571;274,761,904,761,905;60;375;0;1;2;0;1;2;0;1;2;5576;0;TRUE;0,661721068249258;2444;4;1
447;f2ccb4fa75100ad60c7f8402401cdd48;;f;22;0;87;567,712,598,541,621;2,5;727;282;60;375;1;0;2;0;1;2;1;1;3;4526;0;FALSE;0,964391691394659;3079;4;0
448;f2ccb4fa75100ad60c7f8402401cdd48;;f;22;0;88;500,951,947,151,737;3;683;256,666,666,666,667;60;375;2;1;0;0;1;2;1;2;2;2759;2;FALSE;0,955489614243323;2581;4;0
449;f2ccb4fa75100ad60c7f8402401cdd48;;f;22;0;89;454,516,933,148,934;2,1;714,428,571,428,571;274,761,904,761,905;60;375;2;1;0;0;1;2;2;1;2;6211;2;TRUE;0,821958456973294;4915;4;1
450;f2ccb4fa75100ad60c7f8402401cdd48;;f;22;0;90;317,488,327,263,626;2,5;694;263;60;375;2;1;0;0;1;2;1;2;2;4433;1;TRUE;0,802670623145401;3091;4;1
451;f2ccb4fa75100ad60c7f8402401cdd48;;f;22;0;91;0,322345895193865;3;683;256,666,666,666,667;60;375;1;2;0;0;1;2;2;2;2;6603;2;TRUE;0,798219584569733;2697;4;1
452;f2ccb4fa75100ad60c7f8402401cdd48;;f;22;0;92;0,517836473870616;2,1;706,571,428,571,429;270,238,095,238,095;60;375;2;0;1;0;1;2;0;2;2;3533;0;TRUE;0,863501483679525;3790;4;1
453;f2ccb4fa75100ad60c7f8402401cdd48;;f;22;0;93;362,343,333,732,055;3;738;288,333,333,333,333;60;375;1;2;0;0;1;2;1;1;2;2592;1;TRUE;0,980712166172107;7491;4;1
454;f2ccb4fa75100ad60c7f8402401cdd48;;f;22;0;94;104,127,569,254,991;3;738;288,333,333,333,333;60;375;0;1;2;0;1;2;0;1;2;2537;0;TRUE;0,959940652818991;4805;4;1
455;f2ccb4fa75100ad60c7f8402401cdd48;;f;22;0;95;588,624,390,638,874;2,5;727;282;60;375;2;1;0;0;1;2;2;1;2;6526;2;TRUE;0,961424332344214;2779;4;1
456;f2ccb4fa75100ad60c7f8402401cdd48;;f;22;0;96;112,630,892,242,889;3;738;288,333,333,333,333;60;375;2;0;1;0;1;2;2;1;2;4782;2;TRUE;1;937;4;1
457;f2ccb4fa75100ad60c7f8402401cdd48;;f;22;0;97;222,002,337,878,055;2,5;694;263;60;375;2;0;1;0;1;2;0;2;2;3312;0;TRUE;0,522255192878338;5006;4;1
458;f2ccb4fa75100ad60c7f8402401cdd48;;f;22;0;98;421,217,091,305,764;2,5;694;263;60;375;1;0;2;0;1;2;0;2;3;3838;0;TRUE;1;1418;4;1
459;f2ccb4fa75100ad60c7f8402401cdd48;;f;22;0;99;152,810,744,019,365;3;683;256,666,666,666,667;60;375;0;1;2;0;1;2;1;2;3;3016;1;TRUE;0,961424332344214;2837;4;1
460;f2ccb4fa75100ad60c7f8402401cdd48;;f;22;0;100;159,995,595,562,854;2,5;727;282;60;375;1;0;2;0;1;2;1;1;2;5962;1;TRUE;0,623145400593472;3678;4;1
461;f2ccb4fa75100ad60c7f8402401cdd48;;f;22;0;101;377,526,151,942,584;2,5;727;282;60;375;0;2;1;0;1;2;0;1;3;2764;0;TRUE;0,804154302670623;2460;4;1
462;f2ccb4fa75100ad60c7f8402401cdd48;;f;22;0;102;296,026,461,765,391;3;683;256,666,666,666,667;60;375;0;1;2;0;1;2;1;2;2;3016;1;TRUE;0,962908011869436;4546;4;1
463;f2ccb4fa75100ad60c7f8402401cdd48;;f;22;0;103;505,319,978,031,641;2,1;706,571,428,571,429;270,238,095,238,095;60;375;1;0;2;0;1;2;0;2;3;2932;0;TRUE;0,958456973293769;4149;4;1
464;f2ccb4fa75100ad60c7f8402401cdd48;;f;22;0;104;252,162,688,782,771;2,5;727;282;60;375;2;1;0;0;1;2;2;1;2;3967;2;TRUE;0,958456973293769;2486;4;1
465;f2ccb4fa75100ad60c7f8402401cdd48;;f;22;0;105;251,987,357,637,013;2,1;706,571,428,571,429;270,238,095,238,095;60;375;0;1;2;0;1;2;1;2;2;3277;0;FALSE;0,982195845697329;1346;4;0
466;f2ccb4fa75100ad60c7f8402401cdd48;;f;22;0;106;57,474,176,130,039;3;683;256,666,666,666,667;60;375;2;1;0;0;1;2;1;2;3;2888;1;TRUE;0,961424332344214;2862;4;1
467;f2ccb4fa75100ad60c7f8402401cdd48;;f;22;0;107;312,505,662,312,105;3;738;288,333,333,333,333;60;375;1;0;2;0;1;2;1;1;2;5436;1;TRUE;1;1090;4;1
468;f2ccb4fa75100ad60c7f8402401cdd48;;f;22;0;108;475,363,623,532,973;2,5;694;263;60;375;2;1;0;0;1;2;1;2;2;2655;1;TRUE;0,63353115727003;2518;4;1
469;f2ccb4fa75100ad60c7f8402401cdd48;;f;22;0;109;0,0644404565220635;2,1;714,428,571,428,571;274,761,904,761,905;60;375;1;0;2;0;1;2;1;1;3;2462;0;FALSE;0,955489614243323;3387;4;0
470;f2ccb4fa75100ad60c7f8402401cdd48;;f;22;0;110;109,542,786,357,967;2,1;706,571,428,571,429;270,238,095,238,095;60;375;2;0;1;0;1;2;0;2;2;5566;0;TRUE;0,86053412462908;6531;4;1
471;f2ccb4fa75100ad60c7f8402401cdd48;;f;22;0;111;549,709,103,792,658;3;683;256,666,666,666,667;60;375;0;2;1;0;1;2;2;2;3;6566;2;TRUE;0,523738872403561;2025;4;1
472;f2ccb4fa75100ad60c7f8402401cdd48;;f;22;0;112;191,995,576,042,968;2,5;694;263;60;375;2;0;1;0;1;2;0;2;3;3734;0;TRUE;0,615727002967359;3124;4;1
473;f2ccb4fa75100ad60c7f8402401cdd48;;f;22;0;113;420,387,822,373,736;2,5;694;263;60;375;0;2;1;0;1;2;2;2;3;2530;2;TRUE;0,857566765578635;5247;4;1
474;f2ccb4fa75100ad60c7f8402401cdd48;;f;22;0;114;158,456,772,036,561;3;738;288,333,333,333,333;60;375;0;2;1;0;1;2;0;1;2;2864;0;TRUE;0,623145400593472;4516;4;1
475;f2ccb4fa75100ad60c7f8402401cdd48;;f;22;0;115;0,815288909391033;2,5;694;263;60;375;1;0;2;0;1;2;0;2;2;3148;0;TRUE;0,600890207715134;2268;4;1
476;f2ccb4fa75100ad60c7f8402401cdd48;;f;22;0;116;507,609,184,602,107;3;738;288,333,333,333,333;60;375;0;2;1;0;1;2;0;1;3;2212;0;TRUE;0,956973293768546;3477;4;1
477;f2ccb4fa75100ad60c7f8402401cdd48;;f;22;0;117;620,672,338,574,963;2,5;694;263;60;375;2;1;0;0;1;2;1;2;3;3200;1;TRUE;0,964391691394659;1951;4;1
478;f2ccb4fa75100ad60c7f8402401cdd48;;f;22;0;118;486,068,480,190,819;2,5;694;263;60;375;1;2;0;0;1;2;2;2;2;7230;2;TRUE;0,522255192878338;2443;4;1
479;f2ccb4fa75100ad60c7f8402401cdd48;;f;22;0;119;587,621,253,283,788;2,5;694;263;60;375;1;0;2;0;1;2;0;2;2;2474;0;TRUE;0,962908011869436;1795;4;1
480;f2ccb4fa75100ad60c7f8402401cdd48;;f;22;0;120;18,483,361,509,952;2,1;706,571,428,571,429;270,238,095,238,095;60;375;2;1;0;0;1;2;1;2;3;3780;1;TRUE;0,897626112759644;2710;4;1
601;de0959b43ffb63025622420128b55dc0;;m;21;0;1;303,790,996,337,219;3;738;288,333,333,333,333;60;375;2;1;0;0;1;2;2;1;2;17382;1;FALSE;0,501483679525223;6342;5;0
603;de0959b43ffb63025622420128b55dc0;;m;21;0;3;3,576,996,393,885;2,1;714,428,571,428,571;274,761,904,761,905;60;375;2;0;1;0;1;2;2;1;3;7704;2;TRUE;0,799703264094956;3351;5;1
604;de0959b43ffb63025622420128b55dc0;;m;21;0;4;416,497,074,771,951;2,1;706,571,428,571,429;270,238,095,238,095;60;375;2;0;1;0;1;2;0;2;3;13302;2;FALSE;0,798219584569733;4808;5;0
605;de0959b43ffb63025622420128b55dc0;;m;21;0;5;182,294,161,662,414;3;683;256,666,666,666,667;60;375;2;1;0;0;1;2;1;2;2;7105;1;TRUE;0,706231454005935;3523;5;1
606;de0959b43ffb63025622420128b55dc0;;m;21;0;6;237,466,947,068,245;2,1;714,428,571,428,571;274,761,904,761,905;60;375;0;2;1;0;1;2;0;1;2;18073;2;FALSE;0,747774480712166;1492;5;0
607;de0959b43ffb63025622420128b55dc0;;m;21;0;7;214,447,573,496,751;3;738;288,333,333,333,333;60;375;1;2;0;0;1;2;1;1;3;3874;1;TRUE;0,77893175074184;2809;5;1
608;de0959b43ffb63025622420128b55dc0;;m;21;0;8;309,415,166,182,743;3;683;256,666,666,666,667;60;375;1;2;0;0;1;2;2;2;3;4008;1;FALSE;0,323442136498516;2345;5;0
609;de0959b43ffb63025622420128b55dc0;;m;21;0;9;531,902,137,874,189;2,5;727;282;60;375;1;2;0;0;1;2;1;1;2;2215;1;TRUE;0,900593471810089;2858;5;1
610;de0959b43ffb63025622420128b55dc0;;m;21;0;10;308,718,610,282,428;2,1;706,571,428,571,429;270,238,095,238,095;60;375;1;0;2;0;1;2;0;2;2;4256;1;FALSE;0,406528189910979;3301;5;0
611;de0959b43ffb63025622420128b55dc0;;m;21;0;11;0,382801597154669;2,5;694;263;60;375;0;2;1;0;1;2;2;2;3;8158;2;TRUE;0,70326409495549;4619;5;1
612;de0959b43ffb63025622420128b55dc0;;m;21;0;12;625,958,768,695,994;2,5;694;263;60;375;0;1;2;0;1;2;1;2;3;2271;1;TRUE;0,747774480712166;2980;5;1
613;de0959b43ffb63025622420128b55dc0;;m;21;0;13;231,464,666,998,561;2,5;727;282;60;375;1;2;0;0;1;2;1;1;2;3321;2;FALSE;0,152818991097923;2667;5;0
614;de0959b43ffb63025622420128b55dc0;;m;21;0;14;269,089,771,158,058;2,5;694;263;60;375;0;1;2;0;1;2;1;2;2;5015;0;FALSE;0,646884272997033;2488;5;0
615;de0959b43ffb63025622420128b55dc0;;m;21;0;15;206,430,591,080,742;3;738;288,333,333,333,333;60;375;0;2;1;0;1;2;0;1;3;4290;2;FALSE;0,102373887240356;2005;5;0
616;de0959b43ffb63025622420128b55dc0;;m;21;0;16;100,581,625,760,571;2,1;714,428,571,428,571;274,761,904,761,905;60;375;0;1;2;0;1;2;0;1;3;9479;1;FALSE;0,339762611275964;3565;5;0
617;de0959b43ffb63025622420128b55dc0;;m;21;0;17;191,129,523,548,905;3;683;256,666,666,666,667;60;375;2;0;1;0;1;2;0;2;3;15212;2;FALSE;0,246290801186944;1029;5;0
618;de0959b43ffb63025622420128b55dc0;;m;21;0;18;585,853,978,154,553;3;683;256,666,666,666,667;60;375;1;2;0;0;1;2;2;2;2;8038;2;TRUE;0,304154302670623;1120;5;1
619;de0959b43ffb63025622420128b55dc0;;m;21;0;19;592,537,167,154,427;2,1;706,571,428,571,429;270,238,095,238,095;60;375;2;1;0;0;1;2;1;2;2;4429;1;TRUE;0,433234421364985;2126;5;1
620;de0959b43ffb63025622420128b55dc0;;m;21;0;20;326,066,878,641,576;2,5;694;263;60;375;1;0;2;0;1;2;0;2;3;2654;0;TRUE;0,758160237388724;1733;5;1
621;de0959b43ffb63025622420128b55dc0;;m;21;0;21;528,009,436,413,549;2,1;714,428,571,428,571;274,761,904,761,905;60;375;0;1;2;0;1;2;0;1;2;2198;1;FALSE;0,64540059347181;2327;5;0
622;de0959b43ffb63025622420128b55dc0;;m;21;0;22;248,146,813,017,831;2,5;694;263;60;375;2;1;0;0;1;2;1;2;2;5447;1;TRUE;0,807121661721068;2203;5;1
623;de0959b43ffb63025622420128b55dc0;;m;21;0;23;300,030,019,128,776;3;738;288,333,333,333,333;60;375;0;1;2;0;1;2;0;1;2;2578;0;TRUE;0,675074183976261;3966;5;1
624;de0959b43ffb63025622420128b55dc0;;m;21;0;24;0,422909514658418;2,5;727;282;60;375;0;2;1;0;1;2;0;1;2;3093;2;FALSE;0,255192878338279;1935;5;0
625;de0959b43ffb63025622420128b55dc0;;m;21;0;25;307,343,827,035,507;2,1;714,428,571,428,571;274,761,904,761,905;60;375;0;2;1;0;1;2;0;1;3;5775;2;FALSE;0,594955489614243;5113;5;0
626;de0959b43ffb63025622420128b55dc0;;m;21;0;26;107,978,345,854,622;2,5;694;263;60;375;0;2;1;0;1;2;2;2;2;3489;0;FALSE;0,897626112759644;2065;5;0
627;de0959b43ffb63025622420128b55dc0;;m;21;0;27;0,880448417029207;2,5;694;263;60;375;0;2;1;0;1;2;2;2;2;2286;2;TRUE;0,707715133531157;1472;5;1
628;de0959b43ffb63025622420128b55dc0;;m;21;0;28;281,853,772,956,087;3;683;256,666,666,666,667;60;375;0;2;1;0;1;2;2;2;2;4539;0;FALSE;0,747774480712166;1953;5;0
629;de0959b43ffb63025622420128b55dc0;;m;21;0;29;420,594,657,378,957;3;683;256,666,666,666,667;60;375;2;1;0;0;1;2;1;2;3;2392;2;FALSE;0,498516320474777;2870;5;0
630;de0959b43ffb63025622420128b55dc0;;m;21;0;30;572,983,470,717,209;2,1;714,428,571,428,571;274,761,904,761,905;60;375;2;0;1;0;1;2;2;1;2;5130;2;TRUE;0,802670623145401;2207;5;1
631;de0959b43ffb63025622420128b55dc0;;m;21;0;31;411,589,012,620,269;3;738;288,333,333,333,333;60;375;0;1;2;0;1;2;0;1;2;2335;0;TRUE;0,599406528189911;2187;5;1
632;de0959b43ffb63025622420128b55dc0;;m;21;0;32;381,566,382,249,993;3;738;288,333,333,333,333;60;375;0;1;2;0;1;2;0;1;3;2579;0;TRUE;0,744807121661721;2177;5;1
633;de0959b43ffb63025622420128b55dc0;;m;21;0;33;295,394,501,157,113;2,1;706,571,428,571,429;270,238,095,238,095;60;375;0;2;1;0;1;2;2;2;3;4410;2;TRUE;0,606824925816024;3433;5;1
634;de0959b43ffb63025622420128b55dc0;;m;21;0;34;477,255,311,176,642;3;738;288,333,333,333,333;60;375;0;1;2;0;1;2;0;1;2;5300;1;FALSE;0,600890207715134;2609;5;0
635;de0959b43ffb63025622420128b55dc0;;m;21;0;35;0,990727433832676;2,5;694;263;60;375;0;2;1;0;1;2;2;2;3;3759;2;TRUE;0,654302670623145;2307;5;1
636;de0959b43ffb63025622420128b55dc0;;m;21;0;36;577,125,666,805,392;3;738;288,333,333,333,333;60;375;2;0;1;0;1;2;2;1;3;5565;0;FALSE;0,77893175074184;3503;5;0
637;de0959b43ffb63025622420128b55dc0;;m;21;0;37;30,737,200,975,356;2,1;714,428,571,428,571;274,761,904,761,905;60;375;0;2;1;0;1;2;0;1;3;2442;0;TRUE;0,603857566765579;2408;5;1
638;de0959b43ffb63025622420128b55dc0;;m;21;0;38;0,863382853996062;2,1;714,428,571,428,571;274,761,904,761,905;60;375;0;2;1;0;1;2;0;1;3;6077;0;TRUE;0,817507418397626;2065;5;1
639;de0959b43ffb63025622420128b55dc0;;m;21;0;39;444,806,849,505,894;2,1;706,571,428,571,429;270,238,095,238,095;60;375;1;2;0;0;1;2;2;2;2;7098;2;TRUE;0,937685459940653;2166;5;1
640;de0959b43ffb63025622420128b55dc0;;m;21;0;40;473,841,600,523,827;2,5;694;263;60;375;2;1;0;0;1;2;1;2;2;6335;2;FALSE;0,29080118694362;1462;5;0
641;de0959b43ffb63025622420128b55dc0;;m;21;0;41;160,155,906,951,221;2,1;706,571,428,571,429;270,238,095,238,095;60;375;0;1;2;0;1;2;1;2;3;11303;0;FALSE;0,510385756676558;1210;5;0
642;de0959b43ffb63025622420128b55dc0;;m;21;0;42;491,464,006,428,426;2,5;694;263;60;375;1;2;0;0;1;2;2;2;3;2245;2;TRUE;0,746290801186944;1040;5;1
643;de0959b43ffb63025622420128b55dc0;;m;21;0;43;301,868,028,669,566;2,1;714,428,571,428,571;274,761,904,761,905;60;375;2;0;1;0;1;2;2;1;3;4184;2;TRUE;0,899109792284866;1954;5;1
644;de0959b43ffb63025622420128b55dc0;;m;21;0;44;250,260,044,542,209;2,1;714,428,571,428,571;274,761,904,761,905;60;375;0;1;2;0;1;2;0;1;2;2066;0;TRUE;0,313056379821958;1231;5;1
645;de0959b43ffb63025622420128b55dc0;;m;21;0;45;50,039,508,561,875;2,5;694;263;60;375;1;0;2;0;1;2;0;2;3;1961;0;TRUE;0,704747774480712;1091;5;1
646;de0959b43ffb63025622420128b55dc0;;m;21;0;46;580,648,109,387,214;2,5;727;282;60;375;2;1;0;0;1;2;2;1;3;3156;1;FALSE;1;1161;5;0
647;de0959b43ffb63025622420128b55dc0;;m;21;0;47;176,477,739,980,766;3;683;256,666,666,666,667;60;375;1;2;0;0;1;2;2;2;2;1840;2;TRUE;0,678041543026706;696;5;1
648;de0959b43ffb63025622420128b55dc0;;m;21;0;48;422,904,593,713,509;2,5;727;282;60;375;0;1;2;0;1;2;0;1;2;8406;1;FALSE;0,902077151335312;2068;5;0
649;de0959b43ffb63025622420128b55dc0;;m;21;0;49;594,859,692,042,246;2,5;727;282;60;375;0;2;1;0;1;2;0;1;3;2815;0;TRUE;0,863501483679525;1181;5;1
650;de0959b43ffb63025622420128b55dc0;;m;21;0;50;144,552,373,079,836;2,1;706,571,428,571,429;270,238,095,238,095;60;375;2;1;0;0;1;2;1;2;2;3594;1;TRUE;0,451038575667656;2417;5;1
651;de0959b43ffb63025622420128b55dc0;;m;21;0;51;409,677,234,616,725;2,5;694;263;60;375;1;0;2;0;1;2;0;2;2;2949;0;TRUE;0,707715133531157;2286;5;1
652;de0959b43ffb63025622420128b55dc0;;m;21;0;52;0,506551710243622;2,1;706,571,428,571,429;270,238,095,238,095;60;375;0;1;2;0;1;2;1;2;3;2424;1;TRUE;0,566765578635015;4546;5;1
653;de0959b43ffb63025622420128b55dc0;;m;21;0;53;617,051,321,411,287;2,1;706,571,428,571,429;270,238,095,238,095;60;375;2;0;1;0;1;2;0;2;3;3334;2;FALSE;0,446587537091988;1121;5;0
655;de0959b43ffb63025622420128b55dc0;;m;21;0;55;362,927,403,520,443;2,5;694;263;60;375;0;2;1;0;1;2;2;2;2;2606;2;TRUE;0,400593471810089;1041;5;1
656;de0959b43ffb63025622420128b55dc0;;m;21;0;56;0,635832610297884;3;683;256,666,666,666,667;60;375;2;1;0;0;1;2;1;2;2;2696;1;TRUE;0,845697329376855;1894;5;1
657;de0959b43ffb63025622420128b55dc0;;m;21;0;57;213,646,249,809,291;3;738;288,333,333,333,333;60;375;1;2;0;0;1;2;1;1;3;4294;2;FALSE;0,402077151335312;1101;5;0
658;de0959b43ffb63025622420128b55dc0;;m;21;0;58;142,201,425,938,562;2,1;706,571,428,571,429;270,238,095,238,095;60;375;2;0;1;0;1;2;0;2;2;1994;0;TRUE;0,900593471810089;2164;5;1
659;de0959b43ffb63025622420128b55dc0;;m;21;0;59;144,182,661,035,883;2,5;727;282;60;375;2;1;0;0;1;2;2;1;2;2527;2;TRUE;0,497032640949555;1000;5;1
660;de0959b43ffb63025622420128b55dc0;;m;21;0;60;600,230,691,334,545;3;738;288,333,333,333,333;60;375;0;1;2;0;1;2;0;1;2;8946;0;TRUE;0,94213649851632;1674;5;1
661;de0959b43ffb63025622420128b55dc0;;m;21;0;61;427,815,699,519,938;2,1;714,428,571,428,571;274,761,904,761,905;60;375;0;1;2;0;1;2;0;1;2;11545;1;FALSE;0,603857566765579;5073;5;0
662;de0959b43ffb63025622420128b55dc0;;m;21;0;62;557,520,047,972,444;2,5;727;282;60;375;2;0;1;0;1;2;2;1;2;5510;2;TRUE;0,596439169139466;4157;5;1
663;de0959b43ffb63025622420128b55dc0;;m;21;0;63;585,440,080,727,929;2,1;714,428,571,428,571;274,761,904,761,905;60;375;1;2;0;0;1;2;1;1;2;2719;1;TRUE;0,799703264094956;3503;5;1
664;de0959b43ffb63025622420128b55dc0;;m;21;0;64;583,323,187,439,786;2,1;706,571,428,571,429;270,238,095,238,095;60;375;0;1;2;0;1;2;1;2;3;5630;0;FALSE;0,486646884272997;1753;5;0
665;de0959b43ffb63025622420128b55dc0;;m;21;0;65;0,734072655513979;2,1;706,571,428,571,429;270,238,095,238,095;60;375;0;2;1;0;1;2;2;2;2;2555;2;TRUE;0,675074183976261;4479;5;1
666;de0959b43ffb63025622420128b55dc0;;m;21;0;66;31,935,093,518,438;2,5;694;263;60;375;0;1;2;0;1;2;1;2;3;4382;1;TRUE;0,627596439169139;1988;5;1
667;de0959b43ffb63025622420128b55dc0;;m;21;0;67;201,002,730,202,073;3;738;288,333,333,333,333;60;375;0;2;1;0;1;2;0;1;3;2293;0;TRUE;0,77893175074184;3545;5;1
668;de0959b43ffb63025622420128b55dc0;;m;21;0;68;224,779,471,482,633;3;738;288,333,333,333,333;60;375;0;1;2;0;1;2;0;1;2;3743;0;TRUE;0,649851632047478;2286;5;1
669;de0959b43ffb63025622420128b55dc0;;m;21;0;69;539,385,975,891,385;2,1;706,571,428,571,429;270,238,095,238,095;60;375;0;2;1;0;1;2;2;2;3;2252;2;TRUE;0,393175074183976;1904;5;1
670;de0959b43ffb63025622420128b55dc0;;m;21;0;70;152,191,500,692,017;2,1;706,571,428,571,429;270,238,095,238,095;60;375;0;1;2;0;1;2;1;2;3;3941;0;FALSE;0,774480712166172;1564;5;0
671;de0959b43ffb63025622420128b55dc0;;m;21;0;71;485,277,050,949,697;3;683;256,666,666,666,667;60;375;0;2;1;0;1;2;2;2;3;8927;0;FALSE;1;1061;5;0
672;de0959b43ffb63025622420128b55dc0;;m;21;0;72;495,751,321,325,143;2,1;706,571,428,571,429;270,238,095,238,095;60;375;0;1;2;0;1;2;1;2;2;4949;1;TRUE;0,808605341246291;2952;5;1
673;de0959b43ffb63025622420128b55dc0;;m;21;0;73;622,404,377,038,306;2,5;727;282;60;375;2;1;0;0;1;2;2;1;3;19423;2;TRUE;0,722551928783383;1803;5;1
674;de0959b43ffb63025622420128b55dc0;;m;21;0;74;218,971,803,308,738;2,5;727;282;60;375;0;1;2;0;1;2;0;1;2;3471;1;FALSE;0,222551928783383;2480;5;0
675;de0959b43ffb63025622420128b55dc0;;m;21;0;75;370,052,843,815,859;2,1;714,428,571,428,571;274,761,904,761,905;60;375;0;2;1;0;1;2;0;1;3;4997;2;FALSE;0,399109792284866;1904;5;0
676;de0959b43ffb63025622420128b55dc0;;m;21;0;76;471,312,123,387,637;3;738;288,333,333,333,333;60;375;1;2;0;0;1;2;1;1;2;2331;1;TRUE;0,710682492581602;2178;5;1
677;de0959b43ffb63025622420128b55dc0;;m;21;0;77;269,610,500,452,082;2,1;706,571,428,571,429;270,238,095,238,095;60;375;2;1;0;0;1;2;1;2;3;5893;2;FALSE;0,332344213649852;1229;5;0
678;de0959b43ffb63025622420128b55dc0;;m;21;0;78;0,505750983498211;2,5;727;282;60;375;0;2;1;0;1;2;0;1;3;3127;0;TRUE;0,250741839762611;1653;5;1
679;de0959b43ffb63025622420128b55dc0;;m;21;0;79;371,574,189,993,271;2,5;694;263;60;375;1;0;2;0;1;2;0;2;3;19890;1;FALSE;0,64540059347181;1483;5;0
680;de0959b43ffb63025622420128b55dc0;;m;21;0;80;0,905105097982437;3;738;288,333,333,333,333;60;375;2;1;0;0;1;2;2;1;3;2374;2;TRUE;0,738872403560831;1298;5;1
681;de0959b43ffb63025622420128b55dc0;;m;21;0;81;0,650834094507215;2,1;714,428,571,428,571;274,761,904,761,905;60;375;2;1;0;0;1;2;2;1;2;2033;2;TRUE;0,578635014836795;1463;5;1
682;de0959b43ffb63025622420128b55dc0;;m;21;0;82;231,201,829,631,286;3;683;256,666,666,666,667;60;375;2;0;1;0;1;2;0;2;3;2833;0;TRUE;0,400593471810089;1419;5;1
683;de0959b43ffb63025622420128b55dc0;;m;21;0;83;487,292,965,511,253;3;683;256,666,666,666,667;60;375;1;0;2;0;1;2;0;2;2;2315;0;TRUE;0,554896142433234;1050;5;1
684;de0959b43ffb63025622420128b55dc0;;m;21;0;84;195,540,659,031,348;2,5;694;263;60;375;1;0;2;0;1;2;0;2;3;2588;0;TRUE;0,801186943620178;1373;5;1
685;de0959b43ffb63025622420128b55dc0;;m;21;0;85;142,224,414,503,747;2,5;727;282;60;375;2;0;1;0;1;2;2;1;3;3519;2;TRUE;0,574183976261128;1383;5;1
686;de0959b43ffb63025622420128b55dc0;;m;21;0;86;430,956,127,610,312;3;683;256,666,666,666,667;60;375;1;0;2;0;1;2;0;2;2;2860;0;TRUE;0,402077151335312;1996;5;1
687;de0959b43ffb63025622420128b55dc0;;m;21;0;87;132,464,772,901,706;2,5;727;282;60;375;1;0;2;0;1;2;1;1;2;2379;1;TRUE;0,600890207715134;3121;5;1
688;de0959b43ffb63025622420128b55dc0;;m;21;0;88;318,006,368,731,097;2,5;727;282;60;375;0;1;2;0;1;2;0;1;3;3378;0;TRUE;0,706231454005935;1423;5;1
689;de0959b43ffb63025622420128b55dc0;;m;21;0;89;55,496,473,900,273;3;683;256,666,666,666,667;60;375;2;0;1;0;1;2;0;2;2;4535;0;TRUE;0,347181008902077;2700;5;1
690;de0959b43ffb63025622420128b55dc0;;m;21;0;90;0,125467522891062;3;738;288,333,333,333,333;60;375;2;0;1;0;1;2;2;1;2;3341;2;TRUE;0,655786350148368;2146;5;1
691;de0959b43ffb63025622420128b55dc0;;m;21;0;91;46,510,616,236,525;3;683;256,666,666,666,667;60;375;0;2;1;0;1;2;2;2;2;3735;0;FALSE;0,421364985163205;2641;5;0
692;de0959b43ffb63025622420128b55dc0;;m;21;0;92;39,246,011,859,131;2,1;706,571,428,571,429;270,238,095,238,095;60;375;1;0;2;0;1;2;0;2;2;4365;0;TRUE;0,799703264094956;2397;5;1
693;de0959b43ffb63025622420128b55dc0;;m;21;0;93;0,735562420319094;3;683;256,666,666,666,667;60;375;0;1;2;0;1;2;1;2;3;2536;1;TRUE;0,615727002967359;1855;5;1
694;de0959b43ffb63025622420128b55dc0;;m;21;0;94;0,932307268172151;3;738;288,333,333,333,333;60;375;1;2;0;0;1;2;1;1;3;4345;2;FALSE;0;978;5;0
695;de0959b43ffb63025622420128b55dc0;;m;21;0;95;573,711,370,601,874;2,1;714,428,571,428,571;274,761,904,761,905;60;375;0;1;2;0;1;2;0;1;2;4364;0;TRUE;0,35459940652819;2982;5;1
696;de0959b43ffb63025622420128b55dc0;;m;21;0;96;400,595,063,239,427;2,5;694;263;60;375;2;0;1;0;1;2;0;2;2;2874;0;TRUE;0,713649851632048;1089;5;1
697;de0959b43ffb63025622420128b55dc0;;m;21;0;97;481,429,163,815,307;2,5;727;282;60;375;1;2;0;0;1;2;1;1;2;4186;2;FALSE;1;1966;5;0
698;de0959b43ffb63025622420128b55dc0;;m;21;0;98;128,834,764,307,867;2,5;694;263;60;375;1;2;0;0;1;2;2;2;3;9296;1;FALSE;0,701780415430267;5223;5;0
699;de0959b43ffb63025622420128b55dc0;;m;21;0;99;359,372,683,637,617;2,5;694;263;60;375;1;0;2;0;1;2;0;2;3;4101;0;TRUE;0,663204747774481;2820;5;1
700;de0959b43ffb63025622420128b55dc0;;m;21;0;100;515,473,625,238,027;2,1;714,428,571,428,571;274,761,904,761,905;60;375;2;0;1;0;1;2;2;1;3;3445;2;TRUE;0,746290801186944;2922;5;1
701;de0959b43ffb63025622420128b55dc0;;m;21;0;101;420,814,681,228,896;3;683;256,666,666,666,667;60;375;1;0;2;0;1;2;0;2;3;3319;0;TRUE;0,468842729970326;1723;5;1
702;de0959b43ffb63025622420128b55dc0;;m;21;0;102;262,370,979,165,736;2,5;727;282;60;375;2;1;0;0;1;2;2;1;3;2615;2;TRUE;0,225519287833828;4166;5;1
703;de0959b43ffb63025622420128b55dc0;;m;21;0;103;245,223,810,643,936;2,1;714,428,571,428,571;274,761,904,761,905;60;375;1;0;2;0;1;2;1;1;3;4173;0;FALSE;0,606824925816024;1231;5;0
704;de0959b43ffb63025622420128b55dc0;;m;21;0;104;0,625514300030925;2,1;714,428,571,428,571;274,761,904,761,905;60;375;2;0;1;0;1;2;2;1;2;11294;2;TRUE;0,198813056379822;3887;5;1
705;de0959b43ffb63025622420128b55dc0;;m;21;0;105;211,953,617,734,142;2,5;727;282;60;375;0;2;1;0;1;2;0;1;3;6443;2;FALSE;0,781899109792285;1564;5;0
706;de0959b43ffb63025622420128b55dc0;;m;21;0;106;51,586,198,287,154;3;683;256,666,666,666,667;60;375;2;1;0;0;1;2;1;2;3;2865;1;TRUE;0,79673590504451;1451;5;1
707;de0959b43ffb63025622420128b55dc0;;m;21;0;107;319,564,676,639,791;2,5;694;263;60;375;2;0;1;0;1;2;0;2;2;2636;0;TRUE;0,597922848664688;1434;5;1
708;de0959b43ffb63025622420128b55dc0;;m;21;0;108;469,601,321,189,921;2,1;714,428,571,428,571;274,761,904,761,905;60;375;1;0;2;0;1;2;1;1;3;2102;1;TRUE;0,111275964391691;1805;5;1
709;de0959b43ffb63025622420128b55dc0;;m;21;0;109;62,601,386,432,957;2,1;706,571,428,571,429;270,238,095,238,095;60;375;1;0;2;0;1;2;0;2;3;2164;1;FALSE;0,559347181008902;3432;5;0
710;de0959b43ffb63025622420128b55dc0;;m;21;0;110;42,683,904,938,271;3;738;288,333,333,333,333;60;375;1;2;0;0;1;2;1;1;3;1934;1;TRUE;0,185459940652819;1181;5;1
711;de0959b43ffb63025622420128b55dc0;;m;21;0;111;184,856,104,287,754;2,1;706,571,428,571,429;270,238,095,238,095;60;375;2;0;1;0;1;2;0;2;2;3543;2;FALSE;0,811572700296736;618;5;0
712;de0959b43ffb63025622420128b55dc0;;m;21;0;112;0,414812579372771;3;738;288,333,333,333,333;60;375;2;0;1;0;1;2;2;1;2;2467;2;TRUE;0,850148367952522;618;5;1
713;de0959b43ffb63025622420128b55dc0;;m;21;0;113;282,568,908,306,911;2,1;706,571,428,571,429;270,238,095,238,095;60;375;2;0;1;0;1;2;0;2;2;2497;2;FALSE;0,608308605341246;789;5;0
714;de0959b43ffb63025622420128b55dc0;;m;21;0;114;540,392,821,620,342;2,5;694;263;60;375;2;0;1;0;1;2;0;2;2;5985;0;TRUE;0,029673590504451;4247;5;1
715;de0959b43ffb63025622420128b55dc0;;m;21;0;115;596,651,093,118,422;3;738;288,333,333,333,333;60;375;0;1;2;0;1;2;0;1;3;2794;0;TRUE;0,234421364985163;1821;5;1
716;de0959b43ffb63025622420128b55dc0;;m;21;0;116;0,521389353349304;2,1;714,428,571,428,571;274,761,904,761,905;60;375;2;0;1;0;1;2;2;1;2;2937;0;FALSE;0,596439169139466;1302;5;0
717;de0959b43ffb63025622420128b55dc0;;m;21;0;117;328,890,941,951,455;3;738;288,333,333,333,333;60;375;0;2;1;0;1;2;0;1;2;2324;0;TRUE;0,15727002967359;2227;5;1
718;de0959b43ffb63025622420128b55dc0;;m;21;0;118;141,986,359,043,928;3;683;256,666,666,666,667;60;375;1;2;0;0;1;2;2;2;3;3933;2;TRUE;0,817507418397626;1511;5;1
719;de0959b43ffb63025622420128b55dc0;;m;21;0;119;628,236,120,733,639;2,5;727;282;60;375;2;1;0;0;1;2;2;1;3;3831;1;FALSE;0,961424332344214;1900;5;0
720;de0959b43ffb63025622420128b55dc0;;m;21;0;120;523,745,845,392;3;683;256,666,666,666,667;60;375;2;0;1;0;1;2;0;2;2;6820;2;FALSE;0,108308605341246;2389;5;0
721;f7a70d0fd644bd6ef41fbaeb4f69201b;;f;20;0;1;116,999,764,871,457;2,1;706,571,428,571,429;270,238,095,238,095;60;375;1;0;2;0;1;2;0;2;3;17342;0;TRUE;0,498516320474777;4441;6;1
723;f7a70d0fd644bd6ef41fbaeb4f69201b;;f;20;0;3;443,127,655,344,485;3;738;288,333,333,333,333;60;375;1;0;2;0;1;2;1;1;2;3913;0;FALSE;0,648367952522255;3940;6;0
724;f7a70d0fd644bd6ef41fbaeb4f69201b;;f;20;0;4;609,515,175,221,175;3;683;256,666,666,666,667;60;375;1;2;0;0;1;2;2;2;2;11989;2;TRUE;0,497032640949555;3411;6;1
725;f7a70d0fd644bd6ef41fbaeb4f69201b;;f;20;0;5;460,088,975,436,933;2,5;727;282;60;375;0;1;2;0;1;2;0;1;2;10500;0;TRUE;0,452522255192878;5204;6;1
726;f7a70d0fd644bd6ef41fbaeb4f69201b;;f;20;0;6;0,170623552286686;3;738;288,333,333,333,333;60;375;0;2;1;0;1;2;0;1;2;5521;2;FALSE;0,599406528189911;2827;6;0
727;f7a70d0fd644bd6ef41fbaeb4f69201b;;f;20;0;7;585,591,288,880,544;2,1;706,571,428,571,429;270,238,095,238,095;60;375;0;2;1;0;1;2;2;2;3;6020;0;FALSE;0,451038575667656;2341;6;0
728;f7a70d0fd644bd6ef41fbaeb4f69201b;;f;20;0;8;460,749,649,164,837;3;738;288,333,333,333,333;60;375;2;0;1;0;1;2;2;1;3;3383;2;TRUE;0,495548961424332;3445;6;1
729;f7a70d0fd644bd6ef41fbaeb4f69201b;;f;20;0;9;147,403,067,587,111;2,1;714,428,571,428,571;274,761,904,761,905;60;375;0;2;1;0;1;2;0;1;3;3534;0;TRUE;0,502967359050445;2155;6;1
730;f7a70d0fd644bd6ef41fbaeb4f69201b;;f;20;0;10;594,226,841,827,804;3;683;256,666,666,666,667;60;375;0;2;1;0;1;2;2;2;2;2811;2;TRUE;0,502967359050445;1954;6;1
731;f7a70d0fd644bd6ef41fbaeb4f69201b;;f;20;0;11;581,462,703,482,375;2,1;714,428,571,428,571;274,761,904,761,905;60;375;2;0;1;0;1;2;2;1;2;3061;0;FALSE;0,498516320474777;1693;6;0
732;f7a70d0fd644bd6ef41fbaeb4f69201b;;f;20;0;12;620,548,016,621,935;3;683;256,666,666,666,667;60;375;1;0;2;0;1;2;0;2;3;14954;0;TRUE;0,502967359050445;1389;6;1
733;f7a70d0fd644bd6ef41fbaeb4f69201b;;f;20;0;13;485,285,064,871,361;2,5;694;263;60;375;0;2;1;0;1;2;2;2;2;4237;0;FALSE;0,452522255192878;4229;6;0
734;f7a70d0fd644bd6ef41fbaeb4f69201b;;f;20;0;14;438,241,282,328,185;2,5;727;282;60;375;1;2;0;0;1;2;1;1;2;3667;1;TRUE;0,498516320474777;4436;6;1
735;f7a70d0fd644bd6ef41fbaeb4f69201b;;f;20;0;15;293,557,884,487,644;2,1;706,571,428,571,429;270,238,095,238,095;60;375;1;2;0;0;1;2;2;2;2;8643;2;TRUE;0,399109792284866;4162;6;1
736;f7a70d0fd644bd6ef41fbaeb4f69201b;;f;20;0;16;340,639,237,036,827;3;683;256,666,666,666,667;60;375;2;1;0;0;1;2;1;2;3;3345;2;FALSE;0,445103857566766;2510;6;0
737;f7a70d0fd644bd6ef41fbaeb4f69201b;;f;20;0;17;621,050,835,798,866;2,5;727;282;60;375;1;0;2;0;1;2;1;1;2;3793;1;TRUE;0,502967359050445;1966;6;1
738;f7a70d0fd644bd6ef41fbaeb4f69201b;;f;20;0;18;371,887,809,472,287;2,5;727;282;60;375;2;1;0;0;1;2;2;1;2;3514;2;TRUE;0,399109792284866;2430;6;1
739;f7a70d0fd644bd6ef41fbaeb4f69201b;;f;20;0;19;152,894,026,298,259;2,1;714,428,571,428,571;274,761,904,761,905;60;375;1;0;2;0;1;2;1;1;2;6287;0;FALSE;0,402077151335312;2293;6;0
740;f7a70d0fd644bd6ef41fbaeb4f69201b;;f;20;0;20;294,447,684,103,669;2,5;694;263;60;375;2;0;1;0;1;2;0;2;3;3699;0;TRUE;0,454005934718101;2854;6;1
741;f7a70d0fd644bd6ef41fbaeb4f69201b;;f;20;0;21;401,042,188,300,511;2,1;714,428,571,428,571;274,761,904,761,905;60;375;2;0;1;0;1;2;2;1;3;3455;2;TRUE;0,448071216617211;4140;6;1
742;f7a70d0fd644bd6ef41fbaeb4f69201b;;f;20;0;22;261,930,826,017,073;3;683;256,666,666,666,667;60;375;0;1;2;0;1;2;1;2;2;3384;1;TRUE;0,502967359050445;2437;6;1
743;f7a70d0fd644bd6ef41fbaeb4f69201b;;f;20;0;23;414,513,067,682,657;3;738;288,333,333,333,333;60;375;0;2;1;0;1;2;0;1;3;6109;0;TRUE;0,5;2148;6;1
744;f7a70d0fd644bd6ef41fbaeb4f69201b;;f;20;0;24;447,478,243,677,731;2,5;694;263;60;375;0;1;2;0;1;2;1;2;3;2935;1;TRUE;0,448071216617211;1906;6;1
745;f7a70d0fd644bd6ef41fbaeb4f69201b;;f;20;0;25;470,506,838,978,375;3;738;288,333,333,333,333;60;375;1;0;2;0;1;2;1;1;2;3204;1;TRUE;0,603857566765579;1383;6;1
746;f7a70d0fd644bd6ef41fbaeb4f69201b;;f;20;0;26;143,580,077,413,662;2,5;694;263;60;375;2;0;1;0;1;2;0;2;3;3631;0;TRUE;0,497032640949555;3749;6;1
747;f7a70d0fd644bd6ef41fbaeb4f69201b;;f;20;0;27;519,568,729,687,525;3;738;288,333,333,333,333;60;375;0;2;1;0;1;2;0;1;3;4422;2;FALSE;0,451038575667656;2254;6;0
748;f7a70d0fd644bd6ef41fbaeb4f69201b;;f;20;0;28;60,516,065,244,291;2,1;706,571,428,571,429;270,238,095,238,095;60;375;0;1;2;0;1;2;1;2;3;14096;0;FALSE;0,451038575667656;2949;6;0
749;f7a70d0fd644bd6ef41fbaeb4f69201b;;f;20;0;29;30,049,243,550,921;2,1;714,428,571,428,571;274,761,904,761,905;60;375;2;1;0;0;1;2;2;1;3;3724;1;FALSE;0,600890207715134;3820;6;0
750;f7a70d0fd644bd6ef41fbaeb4f69201b;;f;20;0;30;175,548,849,655,638;2,5;727;282;60;375;1;0;2;0;1;2;1;1;2;2721;0;FALSE;0,600890207715134;2730;6;0
